ax,ay,az,gx,gy,gz
15204.0,-11632.0,26464.0,-10008.0,14623.0,-3827.0
11100.0,-13404.0,19280.0,-3999.0,26660.0,-1891.0
7612.0,-9744.0,16008.0,3246.0,26385.0,3655.0
704.0,-12328.0,12584.0,-1783.0,21864.0,6869.0
2308.0,-5484.0,13120.0,3781.0,16745.0,1700.0
-3508.0,-7984.0,11088.0,-3972.0,17997.0,0.0
-1480.0,-7044.0,11088.0,-2670.0,7292.0,-5941.0
-5380.0,-11072.0,5664.0,-5165.0,-3430.0,-8070.0
-2952.0,-14336.0,4664.0,-7725.0,-23740.0,-6091.0
1264.0,-10588.0,4668.0,6715.0,-32768.0,-7379.0
7664.0,-13040.0,10300.0,8933.0,-32768.0,-4515.0
12384.0,-1460.0,8792.0,-2392.0,-32768.0,1854.0
21528.0,-9556.0,24928.0,1569.0,-22045.0,3897.0
19784.0,-7868.0,31068.0,11454.0,5363.0,5823.0
20108.0,-5116.0,29916.0,6265.0,32767.0,4083.0
10204.0,-6140.0,19436.0,2956.0,28849.0,-2741.0
6892.0,-7060.0,21448.0,-3656.0,31791.0,-1686.0
1816.0,-5472.0,11564.0,-6083.0,32767.0,-1106.0
-1396.0,-8092.0,9476.0,-8424.0,22428.0,-354.0
-3988.0,-8364.0,2192.0,-11645.0,4786.0,-3417.0
-5620.0,-14220.0,856.0,-6554.0,-11642.0,-6921.0
124.0,-16280.0,-64.0,-7296.0,-20048.0,-2201.0
3792.0,-13376.0,5220.0,1771.0,-32768.0,-6119.0
7584.0,-10516.0,8580.0,9363.0,-32768.0,-5051.0
13044.0,-6556.0,16804.0,9462.0,-32583.0,-1562.0
10228.0,-3560.0,16700.0,6440.0,-32768.0,-975.0
21864.0,-8716.0,32767.0,1083.0,-10987.0,3059.0
22332.0,-6336.0,32767.0,7399.0,29612.0,-3114.0
9576.0,-7412.0,21632.0,-3754.0,32767.0,-2978.0
11752.0,-5104.0,19760.0,-300.0,32767.0,-4448.0
4748.0,-2864.0,8216.0,-11700.0,32767.0,-4755.0
-124.0,-9964.0,9712.0,-6838.0,19566.0,-7608.0
-4668.0,-14284.0,444.0,-16841.0,7164.0,-6658.0
-1388.0,-13516.0,3136.0,-12578.0,-7985.0,-6241.0
-360.0,-16688.0,4772.0,699.0,-20223.0,-3745.0
3480.0,-11744.0,6532.0,4423.0,-26046.0,-86.0
4980.0,-9940.0,8448.0,12107.0,-26284.0,-318.0
5776.0,-6188.0,11472.0,21255.0,-32570.0,428.0
8772.0,-3180.0,13324.0,11808.0,-32768.0,4320.0
16060.0,-2924.0,21628.0,2600.0,-32768.0,400.0
22896.0,-7432.0,24148.0,-4961.0,-18732.0,11.0
23932.0,-8720.0,28772.0,2592.0,9255.0,-1442.0
16564.0,-3608.0,20512.0,-5266.0,32767.0,-2731.0
16744.0,-7220.0,24704.0,-8658.0,32767.0,-5428.0
10812.0,-5988.0,13928.0,-10885.0,32767.0,-1516.0
1088.0,-8384.0,7852.0,-2663.0,32767.0,-7017.0
-1520.0,-8420.0,3464.0,-3538.0,22152.0,-5322.0
-2384.0,-11060.0,5048.0,-2029.0,10751.0,-7932.0
-1096.0,-8840.0,4168.0,-6396.0,659.0,-8767.0
2076.0,-11776.0,-228.0,-297.0,-31238.0,-12170.0
5604.0,-18544.0,8624.0,2784.0,-32768.0,-5945.0
12316.0,-4188.0,10096.0,10749.0,-32768.0,-1665.0
14616.0,-10064.0,21600.0,-8297.0,-32768.0,2296.0
23252.0,-8664.0,21092.0,-5689.0,-21954.0,-2309.0
24600.0,-17160.0,27992.0,2588.0,8511.0,-3772.0
14344.0,-14436.0,25060.0,18452.0,28374.0,14493.0
19252.0,-6532.0,16180.0,19090.0,32767.0,17097.0
5296.0,-11720.0,11424.0,12884.0,32767.0,13072.0
1844.0,-1656.0,7840.0,18641.0,32767.0,617.0
-3356.0,-3436.0,9580.0,8214.0,31282.0,-5731.0
-13508.0,-5276.0,-2768.0,333.0,7121.0,-12243.0
-8204.0,-9480.0,-1184.0,-14256.0,-26031.0,-12116.0
2744.0,-11652.0,7212.0,-11714.0,-32768.0,-10753.0
6236.0,-19968.0,13720.0,-3410.0,-32768.0,-5431.0
8828.0,-4428.0,8192.0,6877.0,-32768.0,3491.0
20536.0,-6452.0,21688.0,-10312.0,-32768.0,4999.0
15388.0,-8900.0,18744.0,-6205.0,-23643.0,1450.0
21464.0,-12124.0,26292.0,5095.0,3840.0,3298.0
19708.0,-9984.0,23204.0,10304.0,32767.0,5051.0
13616.0,-8164.0,19396.0,6449.0,32767.0,8004.0
5400.0,-6424.0,11116.0,2629.0,32767.0,556.0
-2240.0,-7464.0,10496.0,13871.0,29158.0,-4555.0
-4264.0,-5812.0,8524.0,5011.0,25484.0,-3465.0
-10124.0,-6772.0,3708.0,-634.0,9418.0,-5836.0
-9232.0,-10672.0,3184.0,-7573.0,-14312.0,-5249.0
-2484.0,-10596.0,5176.0,-8239.0,-32768.0,-7863.0
3192.0,-13668.0,12060.0,-145.0,-32768.0,-4652.0
11300.0,-7340.0,14460.0,-2447.0,-32768.0,5630.0
15048.0,-9028.0,15932.0,-158.0,-32768.0,5256.0
15432.0,-5868.0,14856.0,-6719.0,-32768.0,74.0
17872.0,-10912.0,19640.0,1036.0,-31169.0,1248.0
18880.0,-8628.0,17856.0,573.0,123.0,2029.0
18084.0,-10448.0,22084.0,4679.0,28740.0,2831.0
18204.0,-8256.0,18896.0,17602.0,32767.0,2196.0
15396.0,-4720.0,20524.0,255.0,32767.0,743.0
2456.0,-8824.0,9676.0,11337.0,32767.0,-1689.0
-9804.0,-7480.0,-2188.0,14464.0,12531.0,-10337.0
-4188.0,-7212.0,4984.0,-8052.0,4569.0,-4465.0
-3344.0,-8640.0,1064.0,-14650.0,-19265.0,-16073.0
-140.0,-14736.0,6388.0,-16944.0,-24994.0,-7812.0
6452.0,-9636.0,7140.0,-16938.0,-32768.0,-4129.0
6052.0,-14160.0,14320.0,3225.0,-32768.0,3997.0
12672.0,-10528.0,14636.0,-10566.0,-32768.0,460.0
17352.0,-17548.0,21980.0,-5142.0,-32768.0,698.0
21792.0,-13056.0,24996.0,1463.0,17291.0,6369.0
12196.0,-12100.0,18672.0,7256.0,28345.0,1697.0
13996.0,-15488.0,22572.0,9119.0,32767.0,2795.0
14784.0,-10664.0,9412.0,5858.0,32767.0,-4245.0
-2004.0,-15972.0,1780.0,21049.0,32767.0,-610.0
-3244.0,-8768.0,664.0,13583.0,22149.0,6531.0
-9224.0,-9032.0,2260.0,8986.0,-14624.0,-3798.0
-6076.0,-8300.0,3592.0,-6433.0,-18738.0,-5360.0
856.0,-13980.0,6548.0,-5849.0,-32768.0,-4270.0
6464.0,-6672.0,7168.0,-9919.0,-32768.0,-1533.0
13440.0,-10704.0,19344.0,-8365.0,-32768.0,5834.0
16988.0,-12016.0,23244.0,-10032.0,-26944.0,3283.0
12468.0,-13100.0,22544.0,4593.0,-10718.0,3447.0
14628.0,-8712.0,21240.0,5367.0,22654.0,10667.0
15164.0,-11980.0,24868.0,10972.0,32767.0,4816.0
5804.0,-7036.0,15064.0,14805.0,32767.0,-5837.0
-1964.0,-9260.0,3328.0,6409.0,27423.0,-7458.0
-4104.0,-8836.0,6764.0,5771.0,9814.0,-9119.0
-4816.0,-12024.0,3088.0,-4836.0,-4868.0,-7382.0
556.0,-14668.0,708.0,-9386.0,-24568.0,-9376.0
4600.0,-7944.0,1572.0,-5668.0,-32768.0,-4259.0
12640.0,-14024.0,18236.0,-5721.0,-32768.0,-509.0
18844.0,-11532.0,24780.0,-1960.0,-32768.0,669.0
15704.0,-10672.0,22200.0,790.0,-10634.0,5830.0
14800.0,-10728.0,23368.0,8417.0,20565.0,10612.0
11288.0,-10316.0,23300.0,12948.0,32767.0,9556.0
14640.0,-7468.0,18984.0,3691.0,32767.0,8530.0
-484.0,-10712.0,10452.0,12096.0,32767.0,-1464.0
-3224.0,-6000.0,4756.0,11994.0,23468.0,-5768.0
-9576.0,-8592.0,-2088.0,3287.0,-4782.0,-13500.0
-6512.0,-15364.0,4516.0,-4829.0,-24893.0,-6464.0
2356.0,-11004.0,8316.0,-8059.0,-32250.0,-8037.0
3228.0,-11888.0,8980.0,10432.0,-32768.0,-7601.0
11676.0,-10892.0,16100.0,-10320.0,-32768.0,2302.0
14196.0,-10968.0,22128.0,-4951.0,-28047.0,3940.0
14532.0,-9764.0,25380.0,2112.0,-8985.0,2671.0
12192.0,-9584.0,25332.0,10004.0,-558.0,8259.0
18520.0,-6720.0,20952.0,11025.0,26377.0,2908.0
11160.0,-8156.0,21892.0,6926.0,32767.0,-1415.0
7800.0,-4976.0,13992.0,1069.0,32767.0,-4017.0
-3020.0,-6880.0,8164.0,5910.0,22375.0,-6855.0
-5208.0,-7440.0,7852.0,-4528.0,14502.0,-6681.0
-5312.0,-9376.0,6476.0,-4110.0,2468.0,-9920.0
-5032.0,-16428.0,4764.0,-5161.0,-16585.0,-5947.0
1320.0,-15184.0,9664.0,-5651.0,-25727.0,866.0
6396.0,-9440.0,12428.0,1400.0,-24791.0,4985.0
5172.0,-11176.0,14948.0,-3459.0,-29052.0,6087.0
8644.0,-9252.0,18872.0,523.0,-24931.0,12566.0
10288.0,-3248.0,19592.0,6588.0,-22660.0,6527.0
8392.0,-7144.0,21188.0,4513.0,-14716.0,3718.0
11924.0,-4936.0,25568.0,3569.0,2740.0,-1003.0
10316.0,-5904.0,24912.0,-831.0,16535.0,-8867.0
7840.0,-8684.0,21772.0,-2693.0,29537.0,-8750.0
7196.0,-6216.0,20492.0,-8193.0,28697.0,-8710.0
4420.0,-8620.0,15232.0,-10162.0,32767.0,-5543.0
-584.0,-10080.0,7496.0,-3091.0,17622.0,-4727.0
-2688.0,-11580.0,1204.0,-3878.0,5685.0,-5789.0
-844.0,-11836.0,4856.0,-11046.0,-2326.0,-8135.0
448.0,-17024.0,6424.0,-1045.0,-13430.0,-5540.0
3744.0,-15940.0,7604.0,4499.0,-16761.0,1172.0
4548.0,-11416.0,14212.0,9217.0,-20900.0,10812.0
3436.0,-8660.0,14304.0,15135.0,-20880.0,16884.0
5524.0,-3704.0,20152.0,4650.0,-22407.0,15172.0
7640.0,-3968.0,23372.0,-4477.0,-18883.0,4425.0
6868.0,-8348.0,28856.0,-578.0,-4893.0,-500.0
8292.0,-5280.0,26200.0,4109.0,22976.0,-2420.0
4736.0,-5992.0,23656.0,-1763.0,28894.0,-9707.0
340.0,-10880.0,18192.0,-1593.0,28441.0,-11141.0
2652.0,-5268.0,14456.0,-7676.0,26229.0,-9436.0
-1760.0,-9816.0,9696.0,-7109.0,16677.0,-12524.0
-2720.0,-14416.0,8036.0,-9261.0,524.0,-10651.0
-900.0,-12612.0,6848.0,-13952.0,1506.0,-5033.0
-512.0,-15180.0,8640.0,-10012.0,-7538.0,-573.0
704.0,-14036.0,8744.0,-926.0,-5155.0,524.0
-272.0,-14336.0,6620.0,3991.0,-7293.0,2297.0
1292.0,-13384.0,9160.0,3922.0,-9817.0,7417.0
1348.0,-12676.0,10560.0,18755.0,-32768.0,14646.0
-568.0,-4512.0,15476.0,9062.0,-29031.0,13954.0
7064.0,-4004.0,16756.0,-2936.0,-22061.0,1093.0
5300.0,-13624.0,24224.0,6806.0,-30359.0,-510.0
9532.0,-5672.0,24580.0,3297.0,-5450.0,6254.0
8076.0,-6348.0,22300.0,-891.0,5753.0,1083.0
5464.0,-6892.0,21472.0,-3333.0,13559.0,-5673.0
2656.0,-9376.0,18892.0,-7564.0,19153.0,-7676.0
2836.0,-8676.0,18408.0,-9543.0,24081.0,-4449.0
2120.0,-9660.0,18008.0,-12120.0,21899.0,-8549.0
1188.0,-11628.0,14488.0,-7977.0,14763.0,-9764.0
2184.0,-11720.0,13836.0,-9536.0,22748.0,-2476.0
-2040.0,-12184.0,7372.0,519.0,6704.0,-3380.0
-2036.0,-12268.0,1332.0,-10296.0,5253.0,-4535.0
-264.0,-13556.0,5576.0,475.0,-5467.0,-1836.0
-408.0,-16264.0,6436.0,12464.0,-15563.0,-2680.0
4448.0,-12768.0,13876.0,16415.0,-697.0,547.0
-1316.0,-10620.0,3824.0,26931.0,-8867.0,5688.0
4760.0,-2432.0,12192.0,7527.0,-18859.0,11802.0
3728.0,-6464.0,22352.0,11307.0,-23075.0,6467.0
5932.0,172.0,26268.0,-318.0,-19569.0,6977.0
6476.0,-2868.0,29652.0,-2153.0,-9383.0,3183.0
5528.0,-3688.0,26352.0,-4586.0,8826.0,-2681.0
4192.0,-7200.0,24224.0,-11147.0,13269.0,-3964.0
4508.0,-5528.0,22236.0,-10344.0,23417.0,-4349.0
3908.0,-6504.0,19204.0,-19361.0,28160.0,-6778.0
-984.0,-12064.0,13276.0,-9918.0,21218.0,-4597.0
-256.0,-9180.0,9436.0,-10150.0,22179.0,-2127.0
-2852.0,-13136.0,2880.0,-2207.0,920.0,-1816.0
-2596.0,-11856.0,3896.0,-3857.0,-1977.0,-2817.0
680.0,-13384.0,5708.0,-38.0,-10123.0,-843.0
2324.0,-12396.0,8856.0,4692.0,-14138.0,-335.0
2864.0,-10868.0,11676.0,13017.0,-19121.0,3584.0
3236.0,-9280.0,12008.0,7995.0,-15510.0,9338.0
2640.0,-6412.0,20528.0,11599.0,-30401.0,10999.0
5468.0,-2484.0,22064.0,4867.0,-22736.0,6964.0
6848.0,-4560.0,29004.0,-712.0,-3500.0,581.0
6140.0,-7816.0,27784.0,-1813.0,7341.0,-4141.0
5640.0,-6860.0,24416.0,-2798.0,17784.0,-1622.0
4328.0,-6580.0,21196.0,-4623.0,19091.0,-2590.0
3716.0,-5372.0,17708.0,-6749.0,23969.0,-4347.0
1336.0,-6724.0,13312.0,-7366.0,20196.0,-4409.0
-592.0,-9828.0,7636.0,-6273.0,13150.0,-6110.0
-2288.0,-10556.0,4320.0,-8755.0,6272.0,-6019.0
-1128.0,-14300.0,5884.0,-7007.0,-950.0,-5743.0
1444.0,-14612.0,7008.0,-227.0,-7006.0,-3664.0
2556.0,-14476.0,10540.0,4578.0,-12479.0,1010.0
2936.0,-11164.0,10900.0,10138.0,-15958.0,7428.0
4800.0,-7920.0,13032.0,11797.0,-24460.0,12100.0
4240.0,-1048.0,20520.0,8500.0,-24589.0,10486.0
7316.0,468.0,26128.0,38.0,-20378.0,821.0
5720.0,-9240.0,29232.0,3550.0,-8221.0,-8717.0
6448.0,-11100.0,29536.0,-782.0,10546.0,-2012.0
5248.0,-5960.0,21492.0,-3995.0,13875.0,-1481.0
7172.0,-3200.0,21820.0,-7451.0,29048.0,-3679.0
2844.0,-4528.0,16992.0,-14226.0,24679.0,-7736.0
-1276.0,-9328.0,13492.0,-13222.0,14122.0,-6064.0
-1372.0,-10160.0,10644.0,-13597.0,12424.0,-2952.0
-1112.0,-11004.0,8216.0,-9577.0,5574.0,-631.0
-884.0,-10364.0,7488.0,-10594.0,2398.0,-2165.0
-484.0,-13960.0,5824.0,-7818.0,596.0,-3668.0
644.0,-17580.0,6044.0,-7079.0,-414.0,-1747.0
312.0,-19020.0,6940.0,7002.0,-7325.0,1750.0
-2012.0,-17348.0,9732.0,18432.0,-11567.0,13654.0
1848.0,-9320.0,8180.0,19953.0,-8931.0,18012.0
1584.0,-7648.0,10928.0,22399.0,-13479.0,16828.0
2008.0,592.0,16936.0,1649.0,-17087.0,15818.0
2024.0,3980.0,19648.0,2788.0,-25689.0,5565.0
3708.0,-252.0,25740.0,-5476.0,-18244.0,-4501.0
3668.0,-3556.0,27228.0,-7456.0,-8475.0,-9939.0
3468.0,-9732.0,31072.0,-6500.0,875.0,-6730.0
5676.0,-5256.0,24536.0,-4947.0,13982.0,-2885.0
5016.0,-4640.0,20936.0,-9244.0,22151.0,-5606.0
3448.0,-6336.0,21076.0,-11718.0,22799.0,-7033.0
2120.0,-6496.0,14932.0,-12520.0,26447.0,-7029.0
-1376.0,-9936.0,9340.0,-9800.0,13310.0,-4333.0
-1212.0,-10012.0,4904.0,-8193.0,8887.0,-4348.0
-716.0,-12568.0,7352.0,-5430.0,2532.0,-7836.0
-516.0,-17140.0,4720.0,2556.0,-3742.0,-7078.0
296.0,-18036.0,7196.0,5967.0,-6799.0,3388.0
3324.0,-13448.0,8992.0,16907.0,-12065.0,7880.0
372.0,-10916.0,9492.0,25672.0,-15856.0,11264.0
3580.0,-952.0,12820.0,21239.0,-18025.0,19733.0
1088.0,6944.0,16700.0,11020.0,-18973.0,15126.0
10148.0,3104.0,23796.0,-1742.0,-23001.0,1788.0
10212.0,-1616.0,32767.0,5541.0,-14056.0,1856.0
7792.0,1332.0,31404.0,-4386.0,5633.0,-1948.0
4060.0,-1780.0,24848.0,-7705.0,15329.0,-4365.0
2864.0,-2068.0,21588.0,-12909.0,23242.0,-5068.0
3888.0,-1636.0,21660.0,-7951.0,22681.0,-5821.0
2372.0,-3220.0,17508.0,-9189.0,24573.0,-7553.0
-828.0,-5828.0,13460.0,-5982.0,18065.0,-5684.0
-2980.0,-7388.0,6980.0,-9049.0,12231.0,-5310.0
-3264.0,-10092.0,6364.0,-6174.0,3158.0,-6698.0
-3944.0,-13568.0,5164.0,-4611.0,-3414.0,-5848.0
-1368.0,-15220.0,10328.0,-540.0,-7361.0,-3206.0
192.0,-14144.0,12496.0,10349.0,-13841.0,2421.0
900.0,-10736.0,13592.0,13984.0,-14017.0,10145.0
1032.0,-5676.0,12756.0,20571.0,-15426.0,16018.0
3208.0,2588.0,17772.0,13708.0,-15865.0,21837.0
3708.0,6856.0,20300.0,3775.0,-15503.0,12299.0
4924.0,5164.0,26968.0,2570.0,-14079.0,4085.0
3896.0,1572.0,31776.0,100.0,-4096.0,-2781.0
3296.0,784.0,28204.0,-6345.0,9013.0,-4946.0
3816.0,1440.0,24936.0,-14993.0,17806.0,-8578.0
2332.0,396.0,20468.0,-19001.0,20428.0,-13591.0
576.0,-5932.0,18488.0,-22397.0,20939.0,-10951.0
0.0,-6056.0,13140.0,-21758.0,21159.0,-8386.0
-1836.0,-10340.0,9680.0,-14896.0,12154.0,-5519.0
-2536.0,-12088.0,5620.0,-13323.0,7167.0,-4654.0
-1756.0,-15472.0,6256.0,-9050.0,3115.0,-1744.0
-1724.0,-16188.0,4052.0,3205.0,-4348.0,1191.0
-2048.0,-16232.0,6300.0,8216.0,-10413.0,6452.0
-396.0,-11348.0,8624.0,19873.0,-17886.0,10583.0
1552.0,-3732.0,8520.0,19873.0,-22940.0,13867.0
328.0,-860.0,17440.0,20608.0,-27282.0,8730.0
7976.0,5028.0,19288.0,6688.0,-17529.0,6221.0
4804.0,-2068.0,30648.0,4474.0,-16295.0,-4416.0
5312.0,-3048.0,32767.0,-832.0,124.0,89.0
4636.0,-616.0,25064.0,-4965.0,10148.0,-3691.0
3680.0,-1448.0,22740.0,-14455.0,19053.0,-4739.0
3284.0,-540.0,19364.0,-20043.0,24808.0,-7932.0
1540.0,-5192.0,15824.0,-27072.0,22413.0,-12631.0
-920.0,-10852.0,9032.0,-24417.0,19291.0,-9689.0
-2364.0,-11876.0,5732.0,-13067.0,9763.0,-4877.0
-1640.0,-14696.0,4736.0,-13832.0,5723.0,-3558.0
-960.0,-16400.0,3472.0,-1981.0,-640.0,-2396.0
-1884.0,-18496.0,3540.0,11050.0,-6471.0,2481.0
196.0,-12264.0,6628.0,10700.0,-10986.0,7209.0
-912.0,-13868.0,10460.0,21420.0,-15801.0,7662.0
-1416.0,-9472.0,10644.0,27211.0,-18340.0,12917.0
-3632.0,-4860.0,13260.0,32767.0,-24663.0,22223.0
10692.0,11104.0,21348.0,13333.0,-10412.0,16837.0
5968.0,6488.0,20316.0,14113.0,-20599.0,1975.0
5440.0,5320.0,31092.0,3844.0,-6130.0,-1524.0
3476.0,4488.0,28352.0,-6272.0,5312.0,-7160.0
1764.0,1204.0,25024.0,-9217.0,11877.0,-5876.0
1024.0,1432.0,21024.0,-13532.0,17392.0,-7082.0
672.0,-1596.0,22192.0,-13786.0,19967.0,-4106.0
2140.0,948.0,20224.0,-14094.0,27997.0,-4730.0
1060.0,1864.0,10568.0,-15342.0,24343.0,-18420.0
-1892.0,-4660.0,5492.0,-21833.0,12483.0,-29479.0
-3140.0,-15128.0,3716.0,-25140.0,1704.0,-26930.0
-1620.0,-22920.0,5056.0,-21027.0,2538.0,-15608.0
1732.0,-20744.0,3108.0,-2419.0,-6948.0,187.0
1792.0,-17780.0,4016.0,9535.0,-10212.0,8285.0
1112.0,-13144.0,7968.0,11196.0,-14880.0,16718.0
-740.0,-9880.0,12412.0,10473.0,-23346.0,20958.0
436.0,-2180.0,15832.0,15599.0,-23605.0,16062.0
1524.0,-764.0,21724.0,14609.0,-28927.0,6674.0
1108.0,-4336.0,22528.0,8554.0,-18014.0,-1645.0
2348.0,-2192.0,27332.0,9633.0,-4883.0,-2512.0
2768.0,-2348.0,26000.0,-3220.0,2601.0,-8391.0
1596.0,-5072.0,24352.0,-9450.0,16886.0,-11238.0
3212.0,-3896.0,23532.0,-9771.0,22200.0,-12018.0
3112.0,-7220.0,20728.0,-6896.0,16467.0,-8243.0
1288.0,-6472.0,12468.0,-11570.0,17445.0,-8645.0
-1148.0,-12380.0,8908.0,-12867.0,15861.0,-11052.0
-1904.0,-13148.0,6132.0,4399.0,8663.0,-10640.0
-2772.0,-16864.0,8492.0,-5482.0,-132.0,-789.0
1256.0,-12668.0,6588.0,5255.0,-5806.0,10498.0
-356.0,-10848.0,10572.0,10402.0,-10613.0,12125.0
968.0,-6028.0,11252.0,12933.0,-23169.0,19989.0
2048.0,-1684.0,19600.0,9609.0,-16486.0,16466.0
920.0,-1436.0,23044.0,5193.0,-15433.0,14699.0
1952.0,2944.0,24600.0,5470.0,-13771.0,10440.0
2188.0,3044.0,28380.0,-1082.0,-2561.0,514.0
1352.0,112.0,26332.0,-4939.0,6047.0,-7132.0
2676.0,-1276.0,24864.0,-13424.0,15328.0,-14002.0
552.0,-4324.0,20276.0,-14929.0,17511.0,-11214.0
856.0,-7204.0,21684.0,-18811.0,19807.0,-10340.0
712.0,-7644.0,11916.0,-11663.0,18388.0,-5275.0
-2360.0,-10636.0,8200.0,-9478.0,14532.0,-4918.0
-3612.0,-12272.0,4972.0,-5519.0,7787.0,-3328.0
-1976.0,-12684.0,5340.0,-4027.0,-987.0,-1998.0
-1460.0,-14140.0,7432.0,3648.0,-9913.0,-1142.0
-492.0,-12404.0,8740.0,12007.0,-14171.0,2864.0
-1800.0,-10928.0,11236.0,16213.0,-17416.0,10848.0
2228.0,-2472.0,18916.0,8925.0,-18855.0,14758.0
1332.0,-1500.0,19740.0,9833.0,-12887.0,12721.0
-396.0,-2928.0,29032.0,1818.0,-10674.0,5694.0
-616.0,-272.0,27012.0,-2279.0,-3903.0,214.0
-56.0,-2392.0,26708.0,-4733.0,7070.0,-6327.0
-416.0,-3400.0,23296.0,-7813.0,12946.0,-7237.0
60.0,-5484.0,22788.0,-12456.0,17107.0,-8983.0
-68.0,-5308.0,17564.0,-11563.0,16436.0,-5105.0
-1364.0,-9780.0,13952.0,-10272.0,18572.0,-2267.0
-2160.0,-8264.0,8132.0,-7186.0,12150.0,-870.0
-3044.0,-9924.0,5892.0,-5847.0,4864.0,-3570.0
-2512.0,-11440.0,3492.0,175.0,-1785.0,-4680.0
-1500.0,-13332.0,6188.0,182.0,-5568.0,-3850.0
-108.0,-12840.0,9476.0,7292.0,-11158.0,-1900.0
-1368.0,-13252.0,11588.0,14475.0,-16102.0,5134.0
-1796.0,-6852.0,12804.0,23110.0,-19495.0,19906.0
5652.0,6008.0,20452.0,9592.0,-21155.0,12087.0
-316.0,-3796.0,32408.0,-761.0,-14011.0,6067.0
1380.0,1220.0,32767.0,-4233.0,372.0,380.0
-1092.0,-2660.0,28380.0,-4422.0,9949.0,-6846.0
-984.0,-3524.0,22880.0,-13202.0,21036.0,-5690.0
72.0,-4484.0,20412.0,-9870.0,19697.0,-6540.0
-696.0,-10004.0,17092.0,-7293.0,21216.0,-3140.0
-1800.0,-8016.0,8960.0,-12433.0,21193.0,994.0
-4276.0,-10584.0,5452.0,-7168.0,11612.0,-61.0
-3864.0,-9348.0,2884.0,2665.0,-1969.0,-2697.0
-3920.0,-11916.0,5328.0,1515.0,-8861.0,-3189.0
1852.0,-10472.0,7820.0,9137.0,-16668.0,-2691.0
-1772.0,-11140.0,10284.0,6664.0,-16883.0,826.0
20.0,-5744.0,15644.0,14202.0,-21237.0,10258.0
600.0,-1352.0,23824.0,1747.0,-17075.0,7978.0
904.0,64.0,26884.0,3422.0,-21562.0,2126.0
-596.0,-3944.0,32767.0,-1126.0,-2327.0,-732.0
624.0,-3872.0,30516.0,-2885.0,10118.0,-1903.0
1280.0,-3576.0,24888.0,-3180.0,17292.0,-2854.0
1148.0,-4088.0,20680.0,-5840.0,20881.0,-2830.0
1104.0,-5000.0,16584.0,-6570.0,21724.0,-2476.0
-1736.0,-7432.0,9292.0,-7224.0,17886.0,-1233.0
-4380.0,-8472.0,6676.0,-3768.0,11735.0,-1524.0
-4744.0,-8232.0,1952.0,-3716.0,1167.0,-4882.0
-2952.0,-9928.0,4132.0,-3044.0,-6090.0,-5843.0
-1936.0,-11504.0,6892.0,3087.0,-15266.0,-5866.0
500.0,-11560.0,12656.0,1575.0,-19326.0,649.0
1248.0,-8100.0,19864.0,3070.0,-24106.0,7141.0
2428.0,-2480.0,28240.0,2678.0,-23883.0,4735.0
1200.0,-3864.0,31820.0,2028.0,-15119.0,1334.0
1256.0,-4848.0,32136.0,663.0,3271.0,-1549.0
1040.0,-5160.0,27188.0,-289.0,15633.0,-3597.0
1628.0,-4748.0,22200.0,-7055.0,22066.0,-4232.0
2324.0,-6064.0,19376.0,-6736.0,20850.0,-4359.0
508.0,-8048.0,12552.0,-6705.0,17240.0,-2155.0
-1968.0,-8736.0,7948.0,-5468.0,11191.0,-1157.0
-2732.0,-9164.0,5176.0,-1225.0,4071.0,-2845.0
-3512.0,-10804.0,4688.0,-3391.0,-1870.0,-2891.0
-1468.0,-10564.0,6276.0,3584.0,-9684.0,-4288.0
-888.0,-13368.0,10612.0,8391.0,-13928.0,-1484.0
256.0,-9696.0,12776.0,9867.0,-15993.0,6859.0
-496.0,-6796.0,18980.0,6831.0,-17293.0,13811.0
4716.0,-940.0,22932.0,6389.0,-19601.0,13690.0
1860.0,-456.0,30944.0,369.0,-11159.0,8090.0
2896.0,1116.0,31908.0,-88.0,2105.0,-1147.0
-1228.0,-4336.0,26248.0,-2475.0,10916.0,-6374.0
252.0,-4284.0,22616.0,-7561.0,19017.0,-4430.0
-64.0,-6172.0,20804.0,-8243.0,18406.0,-4244.0
-1008.0,-7580.0,16500.0,-6616.0,16474.0,-1194.0
-1388.0,-6852.0,12508.0,-5200.0,15102.0,368.0
-3684.0,-8472.0,7352.0,-4515.0,9422.0,197.0
-3264.0,-7364.0,5092.0,-6953.0,5437.0,-14.0
-3896.0,-10068.0,4892.0,-1909.0,-3273.0,-3090.0
-1808.0,-11508.0,9180.0,4988.0,-10586.0,-2706.0
-3248.0,-13400.0,11604.0,4452.0,-12237.0,554.0
-560.0,-7124.0,16552.0,3965.0,-18481.0,7677.0
-560.0,-2520.0,18600.0,7480.0,-19985.0,5736.0
-2508.0,-3756.0,24112.0,4158.0,-17463.0,4349.0
-824.0,-1452.0,30216.0,-3398.0,-8899.0,1718.0
-80.0,-4244.0,31404.0,87.0,4684.0,-1748.0
-460.0,-5252.0,26756.0,-2197.0,13951.0,-3144.0
152.0,-4584.0,22432.0,-5507.0,20912.0,-1506.0
244.0,-4732.0,18992.0,-6215.0,21243.0,-2404.0
-1828.0,-5032.0,10764.0,-6453.0,17182.0,-3589.0
-3744.0,-8168.0,8636.0,-5017.0,12678.0,-4956.0
-4572.0,-6408.0,3776.0,-1806.0,4363.0,-6262.0
-4984.0,-10712.0,5688.0,-2895.0,180.0,-7928.0
-3400.0,-13104.0,7852.0,1198.0,-7156.0,-4530.0
-1612.0,-13000.0,9364.0,7641.0,-13338.0,-786.0
-2144.0,-11380.0,11864.0,10500.0,-19788.0,5972.0
372.0,-3184.0,18180.0,4470.0,-20849.0,14306.0
1984.0,2540.0,28260.0,-2648.0,-14705.0,8013.0
-1372.0,-3704.0,32767.0,79.0,-6637.0,-3933.0
-2632.0,-5784.0,30888.0,-472.0,8007.0,-3003.0
-1328.0,-4260.0,24036.0,-2343.0,14836.0,-3110.0
-392.0,-4076.0,19932.0,-4667.0,16874.0,-3092.0
-380.0,-5012.0,15788.0,-6961.0,18413.0,-4841.0
-2476.0,-7996.0,10192.0,-5671.0,14882.0,-2325.0
-4368.0,-9948.0,5604.0,-6328.0,9811.0,-1656.0
-3984.0,-10092.0,4316.0,-1994.0,1900.0,-4039.0
-3316.0,-12200.0,6040.0,-1781.0,-4824.0,-4231.0
-1508.0,-12672.0,10132.0,4586.0,-11448.0,-2453.0
-1796.0,-12148.0,12720.0,8541.0,-14579.0,4023.0
-120.0,-4784.0,12312.0,13824.0,-15636.0,13433.0
-2412.0,-2032.0,19216.0,15227.0,-23725.0,15399.0
1412.0,4468.0,30352.0,-5821.0,-11561.0,11461.0
-1260.0,-248.0,32767.0,-5321.0,-2167.0,-5153.0
-1008.0,-1348.0,28564.0,-5562.0,10837.0,-6406.0
-780.0,-4184.0,24212.0,-11491.0,16438.0,-9910.0
-1220.0,-5500.0,19304.0,-11601.0,19838.0,-3522.0
-1716.0,-8788.0,18840.0,-14709.0,21446.0,-3811.0
-2916.0,-6844.0,8456.0,-9965.0,15380.0,1303.0
-3048.0,-7772.0,5496.0,-12423.0,12972.0,-2947.0
-3312.0,-8200.0,968.0,-9182.0,3556.0,-8619.0
-4372.0,-14856.0,1860.0,-7352.0,-101.0,-8971.0
-1516.0,-13992.0,2664.0,-388.0,-8648.0,-6543.0
-1228.0,-15572.0,7328.0,5911.0,-15339.0,235.0
-1084.0,-10552.0,11968.0,6313.0,-19561.0,7721.0
-1240.0,-9552.0,19268.0,6336.0,-24244.0,9274.0
-2084.0,-6272.0,25680.0,-2696.0,-15191.0,981.0
-4076.0,-10348.0,27996.0,-3189.0,-4941.0,-2346.0
-3120.0,-11520.0,27196.0,-2771.0,6639.0,-3354.0
-1748.0,-10432.0,22880.0,-898.0,13520.0,-2781.0
-1412.0,-9948.0,17460.0,-3284.0,17401.0,-1553.0
-372.0,-9412.0,15572.0,-2795.0,17246.0,-2701.0
-1424.0,-10772.0,9288.0,-6414.0,18778.0,-1791.0
-3132.0,-10880.0,6176.0,-6284.0,11236.0,686.0
-4476.0,-10816.0,-308.0,-7878.0,7968.0,-3530.0
-4048.0,-13920.0,336.0,-3431.0,314.0,-5023.0
-1160.0,-12616.0,1544.0,-1820.0,-7286.0,-5489.0
120.0,-14568.0,6580.0,7290.0,-15792.0,-1955.0
-184.0,-14372.0,10036.0,8168.0,-20896.0,5008.0
120.0,-7708.0,12032.0,20808.0,-32729.0,13163.0
4408.0,-1548.0,24024.0,4370.0,-14908.0,7652.0
-1468.0,-5452.0,26272.0,9878.0,-24166.0,352.0
-1468.0,-5452.0,26272.0,9878.0,-24166.0,352.0
-1468.0,-5452.0,26272.0,9878.0,-24166.0,352.0
0.0,0.0,0.0,0.0,0.0,0.0
0.0,0.0,0.0,0.0,0.0,0.0
0.0,0.0,0.0,0.0,0.0,0.0
0.0,0.0,0.0,0.0,0.0,0.0
0.0,0.0,0.0,0.0,0.0,0.0
0.0,0.0,0.0,0.0,0.0,0.0
0.0,0.0,0.0,0.0,0.0,0.0
0.0,0.0,0.0,0.0,0.0,0.0
0.0,0.0,0.0,0.0,0.0,0.0
0.0,0.0,0.0,0.0,0.0,0.0
0.0,0.0,0.0,0.0,0.0,0.0
0.0,0.0,0.0,0.0,0.0,0.0
0.0,0.0,0.0,0.0,0.0,0.0
0.0,0.0,0.0,0.0,0.0,0.0
0.0,0.0,0.0,0.0,0.0,0.0
0.0,0.0,0.0,0.0,0.0,0.0
0.0,0.0,0.0,0.0,0.0,0.0
0.0,0.0,0.0,0.0,0.0,0.0
0.0,0.0,0.0,0.0,0.0,0.0
0.0,0.0,0.0,0.0,0.0,0.0
0.0,0.0,0.0,0.0,0.0,0.0
0.0,0.0,0.0,0.0,0.0,0.0
0.0,0.0,0.0,0.0,0.0,0.0
0.0,0.0,0.0,0.0,0.0,0.0
0.0,0.0,0.0,0.0,0.0,0.0
0.0,0.0,0.0,0.0,0.0,0.0
0.0,0.0,0.0,0.0,0.0,0.0
0.0,0.0,0.0,0.0,0.0,0.0
0.0,0.0,0.0,0.0,0.0,0.0
0.0,0.0,0.0,0.0,0.0,0.0
0.0,0.0,0.0,0.0,0.0,0.0
0.0,0.0,0.0,0.0,0.0,0.0
0.0,0.0,0.0,0.0,0.0,0.0
0.0,0.0,0.0,0.0,0.0,0.0
0.0,0.0,0.0,0.0,0.0,0.0
0.0,0.0,0.0,0.0,0.0,0.0
0.0,0.0,0.0,0.0,0.0,0.0
0.0,0.0,0.0,0.0,0.0,0.0
0.0,0.0,0.0,0.0,0.0,0.0
0.0,0.0,0.0,0.0,0.0,0.0
0.0,0.0,0.0,0.0,0.0,0.0
0.0,0.0,0.0,0.0,0.0,0.0
0.0,0.0,0.0,0.0,0.0,0.0
0.0,0.0,0.0,0.0,0.0,0.0
0.0,0.0,0.0,0.0,0.0,0.0
0.0,0.0,0.0,0.0,0.0,0.0
0.0,0.0,0.0,0.0,0.0,0.0
0.0,0.0,0.0,0.0,0.0,0.0
0.0,0.0,0.0,0.0,0.0,0.0
0.0,0.0,0.0,0.0,0.0,0.0
0.0,0.0,0.0,0.0,0.0,0.0
0.0,0.0,0.0,0.0,0.0,0.0
0.0,0.0,0.0,0.0,0.0,0.0
0.0,0.0,0.0,0.0,0.0,0.0
0.0,0.0,0.0,0.0,0.0,0.0
0.0,0.0,0.0,0.0,0.0,0.0
0.0,0.0,0.0,0.0,0.0,0.0
0.0,0.0,0.0,0.0,0.0,0.0
0.0,0.0,0.0,0.0,0.0,0.0
0.0,0.0,0.0,0.0,0.0,0.0
0.0,0.0,0.0,0.0,0.0,0.0
0.0,0.0,0.0,0.0,0.0,0.0
0.0,0.0,0.0,0.0,0.0,0.0
0.0,0.0,0.0,0.0,0.0,0.0
0.0,0.0,0.0,0.0,0.0,0.0
0.0,0.0,0.0,0.0,0.0,0.0
0.0,0.0,0.0,0.0,0.0,0.0
0.0,0.0,0.0,0.0,0.0,0.0
0.0,0.0,0.0,0.0,0.0,0.0
0.0,0.0,0.0,0.0,0.0,0.0
0.0,0.0,0.0,0.0,0.0,0.0
0.0,0.0,0.0,0.0,0.0,0.0
0.0,0.0,0.0,0.0,0.0,0.0
0.0,0.0,0.0,0.0,0.0,0.0
0.0,0.0,0.0,0.0,0.0,0.0
0.0,0.0,0.0,0.0,0.0,0.0
-4992.0,-10736.0,11180.0,-1107.0,-688.0,-1412.0
-4360.0,-9164.0,14584.0,-234.0,-995.0,889.0
-5660.0,-8344.0,16312.0,-1210.0,-489.0,1287.0
-5540.0,-6832.0,17012.0,-628.0,503.0,1274.0
-5704.0,-6484.0,15844.0,-1608.0,404.0,-615.0
-6132.0,-8020.0,15244.0,-1814.0,-312.0,-62.0
-5080.0,-7444.0,13772.0,-1215.0,-1229.0,-575.0
-3848.0,-9428.0,12324.0,-2290.0,-3832.0,-406.0
-3728.0,-9468.0,11212.0,-3192.0,-6917.0,255.0
-4124.0,-9144.0,14084.0,-1674.0,-9257.0,3188.0
-2796.0,-6512.0,22376.0,-2783.0,-6165.0,2399.0
-3776.0,-5624.0,25620.0,-579.0,-871.0,-346.0
-3984.0,-7184.0,25716.0,972.0,7161.0,-1642.0
-3700.0,-5868.0,17928.0,-2488.0,14082.0,-1967.0
-3980.0,-7748.0,13336.0,-2578.0,11113.0,-1839.0
-5068.0,-9916.0,7236.0,-3195.0,6445.0,-3605.0
-4376.0,-10864.0,5816.0,-2890.0,1424.0,-3036.0
-3352.0,-12152.0,6232.0,-3252.0,-5601.0,-1530.0
-2476.0,-11496.0,9696.0,1902.0,-12477.0,-410.0
-1880.0,-9272.0,12220.0,1117.0,-14531.0,4007.0
-3160.0,-8144.0,19084.0,2557.0,-16149.0,6741.0
-248.0,-3152.0,26484.0,-1246.0,-8041.0,3667.0
-2512.0,-5928.0,28024.0,684.0,-431.0,-1170.0
-2460.0,-6452.0,26468.0,770.0,7209.0,-1599.0
-2404.0,-5632.0,20676.0,-1064.0,12038.0,-2337.0
-2516.0,-6732.0,17440.0,-4662.0,14463.0,-2882.0
-2960.0,-7864.0,13676.0,-4718.0,14835.0,-3227.0
-4516.0,-10516.0,9620.0,-4599.0,11144.0,-1958.0
-5596.0,-10640.0,5620.0,-3590.0,6168.0,-1893.0
-4632.0,-11276.0,5092.0,-3740.0,634.0,-1946.0
-4540.0,-12116.0,5880.0,-737.0,-5982.0,-1913.0
-2448.0,-11756.0,9156.0,4928.0,-12237.0,-562.0
-3492.0,-10584.0,12004.0,6258.0,-15607.0,3884.0
-1472.0,-4200.0,14672.0,7713.0,-18538.0,5503.0
-1060.0,-3620.0,22504.0,4485.0,-16239.0,7019.0
60.0,-1784.0,28616.0,-2695.0,-7306.0,-940.0
-2040.0,-5212.0,30024.0,-163.0,780.0,-4423.0
-2332.0,-6976.0,25740.0,-1626.0,9222.0,-4467.0
-1392.0,-6292.0,22680.0,-3301.0,13959.0,-1988.0
-2448.0,-6852.0,16952.0,-3412.0,14981.0,-1356.0
-3444.0,-7816.0,11940.0,-5527.0,14295.0,406.0
-4136.0,-7072.0,9356.0,-3849.0,9560.0,-160.0
-5028.0,-9352.0,6676.0,-2602.0,4537.0,-2609.0
-4080.0,-9840.0,7264.0,-4426.0,134.0,-2481.0
-3780.0,-11800.0,7872.0,-949.0,-5716.0,-2763.0
-3312.0,-12020.0,11204.0,3523.0,-11109.0,-1461.0
-3616.0,-9948.0,12868.0,5122.0,-13937.0,4202.0
-2576.0,-5896.0,17432.0,6359.0,-14887.0,7398.0
-2484.0,-3572.0,19492.0,2605.0,-13322.0,5511.0
336.0,124.0,26940.0,919.0,-8616.0,1565.0
-1324.0,-2172.0,28536.0,-1122.0,-6.0,-4459.0
-1940.0,-6072.0,25692.0,-1333.0,6564.0,-5473.0
-2300.0,-6544.0,22132.0,-4353.0,12255.0,-3001.0
-848.0,-5324.0,18936.0,-4251.0,14986.0,-2594.0
-2640.0,-5844.0,12188.0,-6100.0,12975.0,-5221.0
-4996.0,-9760.0,10304.0,-6288.0,10220.0,-3735.0
-4516.0,-10904.0,8460.0,-5528.0,6171.0,-1315.0
-3624.0,-10552.0,7760.0,-2150.0,98.0,-1642.0
-3180.0,-10836.0,9572.0,7.0,-5566.0,-200.0
-2484.0,-10492.0,12276.0,2032.0,-9300.0,436.0
-2760.0,-9944.0,15256.0,2767.0,-10870.0,3152.0
-3048.0,-7156.0,18292.0,1786.0,-10168.0,5305.0
-3956.0,-5372.0,20092.0,1907.0,-9620.0,6310.0
-3728.0,-2748.0,22684.0,-1803.0,-5314.0,2835.0
-3280.0,-3472.0,26432.0,-249.0,-241.0,-2480.0
-3588.0,-6096.0,23820.0,-964.0,5858.0,-2971.0
-2756.0,-5812.0,20296.0,-2675.0,9647.0,-2718.0
-3096.0,-7036.0,16380.0,-2955.0,10090.0,-2668.0
-2164.0,-7464.0,14036.0,-4763.0,10572.0,-2597.0
-3952.0,-9888.0,11280.0,-5349.0,9520.0,-2033.0
-3928.0,-9712.0,8936.0,-6498.0,4959.0,-963.0
-4612.0,-11244.0,8256.0,-1388.0,-683.0,-2428.0
-4272.0,-10572.0,8604.0,-276.0,-5975.0,-714.0
-3144.0,-10908.0,12792.0,2261.0,-9655.0,803.0
-2768.0,-7860.0,15052.0,5351.0,-14146.0,2624.0
-3256.0,-6736.0,16272.0,4890.0,-14779.0,3605.0
-1752.0,-3644.0,21580.0,605.0,-14017.0,4238.0
-1396.0,-4492.0,27400.0,-1995.0,-3959.0,-1278.0
-1148.0,-6864.0,26600.0,-2258.0,4761.0,-3387.0
-1588.0,-7496.0,22904.0,-2877.0,10326.0,-3366.0
-2276.0,-7728.0,18908.0,-6095.0,13687.0,-1554.0
-2704.0,-7148.0,16284.0,-2833.0,11056.0,-399.0
-3840.0,-8288.0,13752.0,-3842.0,11032.0,-2268.0
-4744.0,-9048.0,9680.0,-6409.0,9806.0,-610.0
-4644.0,-9312.0,7896.0,-6324.0,6138.0,-1332.0
-4124.0,-10636.0,6728.0,-5016.0,-511.0,-3104.0
-3188.0,-12796.0,7912.0,-1088.0,-6033.0,-2701.0
-2296.0,-12348.0,10388.0,-1538.0,-8945.0,-1718.0
-2280.0,-10320.0,11924.0,-1906.0,-10441.0,41.0
-3696.0,-9924.0,15344.0,413.0,-14789.0,1663.0
-1604.0,-8536.0,20756.0,-402.0,-11633.0,2194.0
-3000.0,-6424.0,22196.0,1575.0,-9765.0,278.0
-2084.0,-8772.0,26840.0,1711.0,1199.0,-2235.0
-2756.0,-11936.0,24604.0,1940.0,6706.0,-819.0
-2176.0,-9500.0,21248.0,2038.0,12754.0,855.0
-3248.0,-9788.0,14976.0,1470.0,10291.0,1870.0
-1960.0,-7808.0,13380.0,-1536.0,11973.0,85.0
-3772.0,-8752.0,9136.0,1272.0,6621.0,-879.0
-3812.0,-8768.0,8176.0,-2355.0,4252.0,-1706.0
-4052.0,-10444.0,7648.0,-415.0,-2209.0,-1784.0
-3196.0,-11064.0,10076.0,-1738.0,-5297.0,-577.0
-3344.0,-10700.0,11380.0,-234.0,-8845.0,761.0
-3288.0,-8748.0,14204.0,2337.0,-12390.0,3371.0
-3224.0,-7824.0,19880.0,2432.0,-12848.0,3585.0
-2916.0,-6908.0,23260.0,1045.0,-7967.0,3224.0
-2936.0,-4744.0,25664.0,-131.0,-2122.0,2282.0
-2872.0,-5320.0,24288.0,301.0,3385.0,-1266.0
-2700.0,-6168.0,21544.0,-1728.0,8585.0,-2641.0
-2640.0,-6752.0,19272.0,-2264.0,12459.0,-2898.0
-2972.0,-7476.0,14532.0,-4226.0,12971.0,-3350.0
-3964.0,-8788.0,11892.0,-944.0,8354.0,-2267.0
-5008.0,-9204.0,8232.0,-3107.0,5818.0,-2871.0
-4772.0,-11148.0,7268.0,-2863.0,-334.0,-2223.0
-3404.0,-11344.0,9388.0,-2130.0,-5108.0,-2703.0
-2680.0,-11076.0,11896.0,-485.0,-9079.0,997.0
-2720.0,-9632.0,14820.0,92.0,-10234.0,3207.0
-3060.0,-7284.0,16444.0,1980.0,-13456.0,4940.0
-2040.0,-4808.0,20340.0,1288.0,-8310.0,3161.0
-3144.0,-4756.0,22272.0,-1018.0,-4709.0,-1242.0
-4060.0,-7484.0,22908.0,-945.0,33.0,-3366.0
-3080.0,-9340.0,23096.0,1059.0,4882.0,-1540.0
-2700.0,-7268.0,21620.0,-820.0,10698.0,-423.0
-3584.0,-7284.0,17692.0,-2476.0,11592.0,-743.0
-3708.0,-7776.0,15256.0,-2277.0,12108.0,-1693.0
-4936.0,-8828.0,12544.0,-3701.0,10970.0,-1106.0
-4784.0,-7900.0,9368.0,-1268.0,7444.0,-1248.0
-4636.0,-9188.0,7028.0,-725.0,3188.0,-4362.0
-2972.0,-9216.0,9372.0,1977.0,-4326.0,-4035.0
-3528.0,-12752.0,11096.0,-2430.0,-6783.0,-2927.0
-3352.0,-10808.0,12984.0,635.0,-10108.0,600.0
-4092.0,-9604.0,14048.0,6498.0,-14631.0,3673.0
-1936.0,-5112.0,16476.0,2865.0,-13862.0,5785.0
-1456.0,-4032.0,20688.0,4732.0,-13136.0,5520.0
-1088.0,-4208.0,25860.0,-48.0,-7297.0,2704.0
-2560.0,-4872.0,26324.0,-679.0,-556.0,3.0
-3080.0,-7200.0,23768.0,-2386.0,6686.0,-735.0
-1924.0,-5924.0,21572.0,-4741.0,11273.0,399.0
-2964.0,-6888.0,19332.0,-5858.0,12021.0,794.0
-2940.0,-5976.0,15764.0,-6397.0,13639.0,-44.0
-3864.0,-7036.0,13184.0,-6678.0,11970.0,-2575.0
-5440.0,-8448.0,8504.0,-6937.0,9694.0,-822.0
-4924.0,-10172.0,8016.0,-9191.0,7538.0,-923.0
-4072.0,-11060.0,8276.0,-2399.0,2769.0,-2837.0
-5124.0,-12584.0,6060.0,-1430.0,-1480.0,-1946.0
-4892.0,-12012.0,8992.0,459.0,-7278.0,-159.0
-5948.0,-12116.0,10948.0,3283.0,-10499.0,3255.0
-5176.0,-8472.0,14568.0,3702.0,-13678.0,5333.0
-3916.0,-5520.0,17332.0,6612.0,-14404.0,5244.0
-2984.0,-3536.0,22796.0,387.0,-8279.0,1780.0
-5532.0,-5512.0,21892.0,729.0,-5229.0,-3400.0
-5120.0,-7720.0,24180.0,274.0,2082.0,-3513.0
-5088.0,-8824.0,22348.0,11.0,6392.0,-2244.0
-3844.0,-6964.0,20260.0,-1524.0,10182.0,-573.0
-3360.0,-6920.0,17752.0,-3326.0,12120.0,-1784.0
-2760.0,-5620.0,14044.0,-3890.0,12050.0,-2006.0
-3612.0,-8060.0,10532.0,-4705.0,11814.0,-6723.0
-6032.0,-10876.0,5900.0,-1391.0,3927.0,-3975.0
-5724.0,-12028.0,6132.0,-4958.0,507.0,-2463.0
-5560.0,-12604.0,8860.0,1514.0,-6259.0,-389.0
-5200.0,-12076.0,12132.0,2354.0,-8240.0,1950.0
-5472.0,-9056.0,13540.0,3618.0,-12178.0,5521.0
-3812.0,-5696.0,16704.0,2162.0,-12745.0,6367.0
-3252.0,-3548.0,19964.0,562.0,-8314.0,2935.0
-3544.0,-4100.0,22152.0,-816.0,-5141.0,-1671.0
-4976.0,-6692.0,22416.0,-245.0,7.0,-3080.0
-5304.0,-8356.0,22380.0,-1720.0,4061.0,-2593.0
-4384.0,-7600.0,20600.0,-3354.0,8727.0,-1407.0
-4116.0,-7972.0,18372.0,-3841.0,10265.0,-783.0
-3700.0,-6780.0,13304.0,-3952.0,10279.0,-2136.0
-4660.0,-9172.0,11924.0,-2921.0,7012.0,-3454.0
-4632.0,-8644.0,9128.0,-1160.0,4036.0,-3778.0
-5348.0,-12160.0,9048.0,-3619.0,2400.0,-2651.0
-5476.0,-12308.0,9256.0,-433.0,-3392.0,631.0
-4848.0,-11708.0,10204.0,334.0,-7657.0,4323.0
-4148.0,-8984.0,11020.0,1401.0,-10929.0,6206.0
-3024.0,-5328.0,15916.0,6485.0,-13240.0,7862.0
-2748.0,-2928.0,19952.0,-777.0,-9340.0,1650.0
-4208.0,-4496.0,21812.0,-1627.0,-7797.0,-1826.0
-6320.0,-7904.0,24592.0,-2290.0,-1453.0,-3194.0
-4688.0,-7776.0,24224.0,-2547.0,4937.0,-2045.0
-4380.0,-6848.0,20456.0,-4774.0,9299.0,-839.0
-2896.0,-5852.0,18724.0,-5708.0,9923.0,-5460.0
-2996.0,-7504.0,14336.0,-6587.0,13211.0,-2991.0
-4140.0,-10060.0,11212.0,-7019.0,9857.0,-4017.0
-4412.0,-9796.0,5716.0,-4355.0,5398.0,-1167.0
-4488.0,-13504.0,7616.0,-2359.0,1294.0,-771.0
-4476.0,-13060.0,7784.0,695.0,-4462.0,1928.0
-4880.0,-12872.0,9856.0,2311.0,-6692.0,4878.0
-4408.0,-9356.0,10864.0,-116.0,-11180.0,6647.0
-2608.0,-5152.0,15660.0,-3225.0,-11176.0,4520.0
-4060.0,-7896.0,18020.0,-3100.0,-10641.0,-2175.0
-5860.0,-8172.0,21548.0,-2407.0,-7242.0,-674.0
-5372.0,-7864.0,22060.0,-1405.0,-1842.0,-1803.0
-4968.0,-9060.0,20248.0,-690.0,2664.0,-1853.0
-3496.0,-8176.0,20800.0,651.0,6549.0,-3107.0
-3752.0,-9780.0,18456.0,-2139.0,9766.0,-3180.0
-2620.0,-8904.0,15248.0,-5265.0,11142.0,-4049.0
-3656.0,-9880.0,11124.0,-5436.0,7704.0,-4392.0
-4028.0,-11360.0,9164.0,-6274.0,6334.0,-4963.0
-5204.0,-13272.0,7460.0,-6846.0,3853.0,-1523.0
-3796.0,-12224.0,8624.0,-5698.0,121.0,-380.0
-5108.0,-14332.0,7636.0,1846.0,-4511.0,1781.0
-4504.0,-13688.0,9356.0,-760.0,-6692.0,6180.0
-4380.0,-11096.0,10336.0,-934.0,-10607.0,7286.0
-4148.0,-10196.0,16312.0,-492.0,-11303.0,4417.0
-3528.0,-7648.0,16220.0,-65.0,-11398.0,3920.0
-2180.0,-6772.0,16880.0,167.0,-6181.0,-2159.0
-3156.0,-8804.0,15972.0,-1087.0,-2726.0,-4404.0
-3864.0,-10124.0,20024.0,2503.0,-120.0,-7143.0
-3016.0,-12448.0,21952.0,426.0,6740.0,-4071.0
-2836.0,-11028.0,19792.0,-2423.0,16351.0,-463.0
-2952.0,-10412.0,14032.0,-1850.0,12389.0,-886.0
-4588.0,-10536.0,9336.0,-5459.0,16481.0,-2028.0
-4988.0,-12488.0,7912.0,1516.0,4092.0,583.0
-4656.0,-10584.0,6452.0,1486.0,422.0,959.0
-5468.0,-11792.0,7168.0,1390.0,-3184.0,-886.0
-5700.0,-12624.0,6324.0,8269.0,-9799.0,-168.0
-1196.0,-10904.0,12468.0,7336.0,-14493.0,3650.0
-3120.0,-6812.0,12444.0,8033.0,-12933.0,-150.0
248.0,-7212.0,20764.0,4816.0,-8008.0,3271.0
-1892.0,-4352.0,22508.0,176.0,-6949.0,1437.0
-3052.0,-4948.0,21036.0,-2271.0,-5470.0,-1038.0
-4404.0,-7444.0,23636.0,-524.0,231.0,-2793.0
-3780.0,-8184.0,22564.0,-2203.0,6839.0,319.0
-2288.0,-7424.0,20548.0,-2747.0,11168.0,811.0
-2308.0,-7776.0,18120.0,-3488.0,12225.0,1466.0
-2704.0,-7304.0,14296.0,-3792.0,14699.0,-203.0
-4424.0,-8684.0,9628.0,-4623.0,8172.0,-845.0
-4480.0,-8160.0,8580.0,-4225.0,3932.0,-1456.0
-5616.0,-10312.0,9100.0,-3617.0,0.0,-3683.0
-4724.0,-8472.0,6864.0,177.0,-5567.0,-3891.0
-1456.0,-8024.0,11796.0,-2312.0,-7452.0,-5662.0
-4468.0,-11572.0,13200.0,-2671.0,-10947.0,-1607.0
-3684.0,-11360.0,19164.0,746.0,-12253.0,301.0
-2476.0,-8440.0,21716.0,599.0,-9458.0,1935.0
-3488.0,-7832.0,22032.0,-474.0,-2881.0,1575.0
-3328.0,-8712.0,22612.0,106.0,3233.0,-806.0
-3300.0,-9848.0,21008.0,700.0,8374.0,67.0
-2372.0,-9092.0,18984.0,1742.0,11558.0,2228.0
-4420.0,-8740.0,13444.0,1097.0,11442.0,2643.0
-4448.0,-7472.0,11096.0,1004.0,8150.0,522.0
-5436.0,-8408.0,8124.0,-1066.0,6242.0,-1097.0
-4984.0,-8644.0,7820.0,-3120.0,2989.0,-2917.0
-5636.0,-10444.0,7236.0,-1624.0,-3686.0,-1907.0
-4396.0,-11452.0,10372.0,-1105.0,-6311.0,-2262.0
-4572.0,-10476.0,12004.0,-60.0,-11429.0,1306.0
-2920.0,-8220.0,16372.0,-834.0,-11060.0,3371.0
-3076.0,-5400.0,19660.0,146.0,-11910.0,2503.0
-4524.0,-6728.0,22544.0,-1492.0,-7125.0,635.0
-5644.0,-7260.0,23580.0,-899.0,-506.0,-1758.0
-5872.0,-8164.0,21764.0,195.0,4876.0,-973.0
-4408.0,-7696.0,20544.0,-1172.0,9585.0,-936.0
-3748.0,-7392.0,18380.0,925.0,8239.0,-15.0
-2680.0,-7096.0,15796.0,-1466.0,10934.0,-1479.0
-3932.0,-8276.0,10716.0,-403.0,7194.0,-1843.0
-4300.0,-10080.0,9492.0,-3337.0,4163.0,-3084.0
-3692.0,-9772.0,7944.0,-1787.0,-465.0,-2726.0
-3692.0,-12148.0,10208.0,-2951.0,-3288.0,-2373.0
-3940.0,-11116.0,10180.0,-1110.0,-8158.0,20.0
-3488.0,-9928.0,15252.0,-2091.0,-8492.0,2786.0
-4096.0,-8052.0,18696.0,-980.0,-8969.0,3824.0
-4844.0,-5464.0,21008.0,93.0,-6148.0,1912.0
-4912.0,-5740.0,20960.0,-395.0,-3586.0,-2071.0
-6288.0,-10056.0,22488.0,663.0,1356.0,-2753.0
-5560.0,-10160.0,21732.0,-309.0,7702.0,-306.0
-4180.0,-8176.0,17408.0,-155.0,9497.0,1767.0
-3136.0,-6964.0,14816.0,-627.0,9109.0,1120.0
-4088.0,-8128.0,10888.0,-66.0,6633.0,-91.0
-4820.0,-9204.0,9904.0,-2647.0,4476.0,-238.0
-4444.0,-9148.0,8372.0,-1726.0,-354.0,-1312.0
-4476.0,-10252.0,9028.0,-1531.0,-4089.0,-2923.0
-4460.0,-10976.0,10556.0,-2276.0,-7118.0,-1792.0
-4332.0,-11216.0,14232.0,-238.0,-10463.0,239.0
-4636.0,-8464.0,18452.0,-2489.0,-10015.0,3920.0
-3720.0,-5384.0,23112.0,-1574.0,-6551.0,1701.0
-5776.0,-7408.0,22720.0,-1559.0,-1411.0,-527.0
-5656.0,-7964.0,21684.0,491.0,3756.0,-1005.0
-5216.0,-8552.0,19960.0,70.0,7774.0,-212.0
-4440.0,-8576.0,18452.0,1070.0,8550.0,1128.0
-3792.0,-7156.0,13644.0,-205.0,9664.0,341.0
-5252.0,-8144.0,10316.0,-1074.0,7305.0,-1515.0
-5344.0,-8600.0,7608.0,-609.0,2412.0,-1848.0
-4908.0,-10664.0,10376.0,-3438.0,273.0,-1211.0
-4200.0,-10684.0,10552.0,-1297.0,-5009.0,-1151.0
-3792.0,-10604.0,11912.0,-1113.0,-7385.0,697.0
-4936.0,-9272.0,12696.0,-1300.0,-10165.0,1825.0
-3600.0,-5764.0,18204.0,568.0,-11505.0,2804.0
-4224.0,-5792.0,22224.0,-1120.0,-6607.0,-975.0
-5936.0,-7104.0,23620.0,-993.0,-2069.0,-1932.0
-5508.0,-9244.0,23580.0,1011.0,3130.0,-1499.0
-4588.0,-8304.0,21228.0,250.0,7560.0,491.0
-3660.0,-7788.0,19216.0,1046.0,10614.0,1487.0
-4120.0,-7752.0,14212.0,882.0,9823.0,1443.0
-5116.0,-7860.0,11112.0,-103.0,7644.0,497.0
-5740.0,-7676.0,7872.0,584.0,3205.0,-617.0
-4892.0,-8436.0,8816.0,-3192.0,216.0,-977.0
-4676.0,-9648.0,9364.0,-2687.0,-4385.0,-2228.0
-4076.0,-9836.0,12016.0,-1982.0,-7793.0,-1166.0
-4520.0,-9040.0,14536.0,-2410.0,-10426.0,2120.0
-4208.0,-6440.0,16868.0,-3733.0,-9499.0,1752.0
-4472.0,-5936.0,20984.0,-1576.0,-9169.0,308.0
-5996.0,-6964.0,22656.0,-2209.0,-4590.0,347.0
-4380.0,-6284.0,25048.0,-439.0,1378.0,-1635.0
-4356.0,-8496.0,23068.0,-363.0,7387.0,-1988.0
-3536.0,-8272.0,20016.0,-1138.0,11161.0,189.0
-3796.0,-7744.0,15756.0,-9.0,10971.0,-203.0
-4136.0,-6868.0,13444.0,-1412.0,10343.0,-804.0
-5244.0,-8012.0,9984.0,-1379.0,7751.0,-2614.0
-5828.0,-8500.0,7596.0,-3343.0,4855.0,-1169.0
-5644.0,-10568.0,8552.0,-1874.0,225.0,-2229.0
-5244.0,-11712.0,8844.0,-2804.0,-3911.0,-1619.0
-4548.0,-10972.0,9496.0,-710.0,-8558.0,-250.0
-4708.0,-10820.0,12484.0,1369.0,-11498.0,1785.0
-3840.0,-6280.0,16540.0,-290.0,-12001.0,4931.0
-4332.0,-4976.0,19648.0,-912.0,-9623.0,2574.0
-4568.0,-5304.0,24060.0,-1131.0,-5500.0,-804.0
-5668.0,-7796.0,25200.0,504.0,541.0,-3501.0
-4908.0,-8504.0,23844.0,673.0,7552.0,-2695.0
-4828.0,-7744.0,17980.0,-287.0,9543.0,-1651.0
-3436.0,-7724.0,15460.0,-432.0,10405.0,-1913.0
-4312.0,-9268.0,11204.0,1710.0,6273.0,-1720.0
-4376.0,-9132.0,8528.0,-1658.0,4784.0,-1557.0
-4388.0,-10312.0,8204.0,-2638.0,-323.0,-667.0
-3772.0,-10484.0,9608.0,-2539.0,-4709.0,-321.0
-3572.0,-10328.0,12256.0,-2673.0,-7670.0,1383.0
-3816.0,-9180.0,15092.0,-1289.0,-9887.0,2026.0
-3316.0,-5976.0,18600.0,-1478.0,-10042.0,4361.0
-4332.0,-5984.0,20996.0,-1377.0,-8113.0,1956.0
-3900.0,-4260.0,23012.0,-828.0,-2272.0,-1240.0
-6296.0,-9044.0,23000.0,-85.0,2140.0,-4278.0
-5304.0,-9516.0,22240.0,-1311.0,7639.0,-574.0
-3420.0,-8936.0,20108.0,-913.0,11480.0,867.0
-3684.0,-8448.0,16568.0,-1396.0,11142.0,2871.0
-3776.0,-7408.0,13988.0,-511.0,11079.0,1300.0
-4672.0,-6332.0,10188.0,-1217.0,9248.0,-1040.0
-5724.0,-6640.0,8292.0,-2555.0,5761.0,-3952.0
-6436.0,-9576.0,5756.0,-4805.0,2053.0,-7248.0
-5664.0,-11460.0,7960.0,-889.0,-4727.0,-3828.0
-5792.0,-14080.0,10376.0,-1026.0,-8137.0,-76.0
-4328.0,-11216.0,11068.0,-2238.0,-10084.0,4018.0
-3616.0,-9340.0,14816.0,-2602.0,-11794.0,5381.0
-3772.0,-6212.0,18096.0,-2026.0,-11898.0,4816.0
-4616.0,-5484.0,23368.0,-1241.0,-7365.0,450.0
-5208.0,-7056.0,24544.0,-689.0,-1472.0,-3182.0
-5880.0,-9836.0,23812.0,1624.0,4605.0,-2583.0
-4904.0,-9912.0,21440.0,836.0,9754.0,61.0
-3400.0,-7988.0,17072.0,1472.0,11156.0,940.0
-3040.0,-7172.0,14000.0,-876.0,12941.0,-160.0
-5808.0,-9304.0,7060.0,-1428.0,8932.0,-1622.0
-5872.0,-8504.0,6248.0,-2008.0,3812.0,-932.0
-7296.0,-10068.0,4272.0,-3658.0,-1248.0,-2023.0
-6352.0,-10288.0,6556.0,-2118.0,-7500.0,-2083.0
-5260.0,-9968.0,8024.0,-1554.0,-13455.0,-789.0
-2468.0,-9624.0,16176.0,-5134.0,-13024.0,2542.0
-2876.0,-8400.0,21160.0,-909.0,-13058.0,831.0
-4168.0,-8160.0,24004.0,-908.0,-6992.0,-60.0
-4732.0,-8148.0,24248.0,-329.0,-521.0,-1888.0
-4620.0,-9360.0,23304.0,1344.0,5142.0,-2364.0
-4184.0,-9524.0,20544.0,-88.0,9865.0,-1021.0
-3456.0,-9048.0,17088.0,695.0,11940.0,280.0
-4168.0,-9132.0,13444.0,424.0,11065.0,1022.0
-5128.0,-8248.0,10092.0,-661.0,10018.0,740.0
-6004.0,-8004.0,7592.0,380.0,5574.0,-1567.0
-7040.0,-8924.0,5444.0,-2718.0,399.0,-2107.0
-5756.0,-10300.0,7148.0,-1784.0,-4924.0,-2071.0
-4944.0,-10668.0,9224.0,-1053.0,-8906.0,-1504.0
-3564.0,-10584.0,14340.0,-285.0,-11599.0,1416.0
-3692.0,-9016.0,17456.0,-1916.0,-10479.0,2825.0
-4048.0,-7548.0,19492.0,-1676.0,-9687.0,1581.0
-4556.0,-6740.0,22080.0,-803.0,-6547.0,917.0
-5564.0,-6628.0,23124.0,-309.0,-563.0,-1111.0
-5380.0,-8100.0,22436.0,-110.0,4813.0,-2384.0
-4572.0,-8336.0,21520.0,-198.0,9689.0,-1925.0
-3940.0,-8128.0,17116.0,-1797.0,12560.0,-1574.0
-3140.0,-8340.0,14420.0,-2284.0,13110.0,-2246.0
-3728.0,-8704.0,7684.0,-5030.0,10865.0,-3356.0
-5528.0,-12556.0,6148.0,-5012.0,5604.0,-2809.0
-4544.0,-12544.0,4372.0,-4882.0,-318.0,-354.0
-4104.0,-13508.0,5124.0,-204.0,-7356.0,1338.0
-3784.0,-12968.0,9360.0,4163.0,-12593.0,5825.0
-2180.0,-7372.0,12672.0,4321.0,-15886.0,8100.0
-1988.0,-4444.0,15524.0,11137.0,-16865.0,12000.0
-4384.0,-2024.0,24720.0,3597.0,-12685.0,5146.0
-5012.0,-1752.0,27768.0,2276.0,-8059.0,-411.0
-5948.0,-4696.0,26000.0,28.0,716.0,-7221.0
-5836.0,-6792.0,22704.0,-2640.0,8123.0,-6035.0
-4692.0,-7152.0,21140.0,-3339.0,11820.0,-2051.0
-3492.0,-5968.0,18012.0,-3122.0,14037.0,-174.0
-4304.0,-7356.0,15052.0,-2675.0,13703.0,-616.0
-3992.0,-5484.0,9940.0,-787.0,9859.0,-1786.0
-4880.0,-7824.0,10044.0,-2321.0,5779.0,-4770.0
-4876.0,-7948.0,6660.0,-4563.0,2551.0,-4037.0
-5304.0,-12188.0,10568.0,-3373.0,-1851.0,-3780.0
-4280.0,-10048.0,9804.0,-3366.0,-5655.0,-971.0
-4416.0,-10220.0,9876.0,-723.0,-10757.0,855.0
-4632.0,-9048.0,13956.0,-543.0,-13033.0,3442.0
-2708.0,-3004.0,16164.0,760.0,-13378.0,3500.0
-4824.0,-6648.0,18296.0,4928.0,-13239.0,-445.0
-4848.0,-7200.0,25264.0,814.0,-8909.0,117.0
-3852.0,-5952.0,28404.0,1028.0,-985.0,-1708.0
-3624.0,-6252.0,24996.0,172.0,8043.0,-3197.0
-3288.0,-6776.0,21620.0,-1268.0,14218.0,-3397.0
-3864.0,-6896.0,17920.0,-4193.0,15227.0,-2423.0
-5128.0,-8836.0,14160.0,-4526.0,14376.0,-2038.0
-4148.0,-7692.0,10908.0,-4899.0,12544.0,2380.0
-4920.0,-8104.0,9020.0,-25.0,6872.0,1360.0
-5252.0,-8680.0,5420.0,-2769.0,3089.0,-1301.0
-5668.0,-9608.0,6496.0,-1968.0,-4049.0,-1312.0
-5332.0,-10436.0,7596.0,-91.0,-9589.0,452.0
-3504.0,-8256.0,11432.0,930.0,-13128.0,4453.0
-5712.0,-7640.0,14036.0,1502.0,-16709.0,5991.0
-3768.0,-3352.0,20280.0,244.0,-16548.0,4728.0
-4876.0,-3696.0,26720.0,-2696.0,-9614.0,-2590.0
-5964.0,-7808.0,29084.0,-1502.0,-1937.0,-3656.0
-4928.0,-7332.0,25780.0,-1099.0,9397.0,-2704.0
-3876.0,-6080.0,20864.0,-3148.0,13154.0,-2669.0
-3356.0,-7296.0,18924.0,-3275.0,15245.0,-1970.0
-3140.0,-6360.0,14036.0,-5109.0,18246.0,-1820.0
-6620.0,-9528.0,7452.0,-4156.0,12896.0,-3029.0
-5692.0,-8088.0,6740.0,-4239.0,8117.0,-1588.0
-6924.0,-9876.0,4028.0,-3636.0,3284.0,-4749.0
-6004.0,-10892.0,7096.0,-8833.0,-1361.0,-3282.0
-5324.0,-11232.0,6552.0,174.0,-7204.0,-6091.0
-5696.0,-12376.0,8104.0,-2409.0,-10075.0,135.0
-6048.0,-10404.0,9608.0,1140.0,-17344.0,5163.0
-3776.0,-7232.0,17156.0,4983.0,-18008.0,7805.0
-3176.0,-4492.0,21432.0,1811.0,-20110.0,2458.0
-2240.0,-6732.0,27548.0,327.0,-6296.0,-2485.0
-4344.0,-10708.0,27412.0,2841.0,2254.0,-2958.0
-3512.0,-9180.0,24072.0,1681.0,10014.0,-1178.0
-3392.0,-7776.0,20380.0,-209.0,16527.0,-718.0
-3528.0,-7820.0,16368.0,-2375.0,18630.0,46.0
-3960.0,-7828.0,12496.0,-1961.0,18254.0,117.0
-6684.0,-8000.0,5388.0,-2916.0,11182.0,854.0
-7136.0,-7408.0,2252.0,-4470.0,4345.0,1937.0
-6900.0,-9136.0,5412.0,-3779.0,-1283.0,-1945.0
-5896.0,-9336.0,4968.0,-1043.0,-9630.0,-4264.0
-4912.0,-11852.0,9960.0,2568.0,-14057.0,-3439.0
-3560.0,-10944.0,12304.0,-2089.0,-16019.0,-71.0
-2152.0,-7832.0,18504.0,2884.0,-18362.0,2682.0
-2688.0,-6216.0,22648.0,292.0,-14543.0,1743.0
-2948.0,-5368.0,25032.0,1032.0,-7928.0,-1412.0
-4824.0,-7900.0,26952.0,155.0,1209.0,-2514.0
-4904.0,-8888.0,24384.0,859.0,7678.0,-1335.0
-4024.0,-8328.0,21784.0,1083.0,14249.0,1395.0
-3348.0,-6880.0,17124.0,-86.0,15062.0,1974.0
-3704.0,-6300.0,12168.0,610.0,13449.0,688.0
-5028.0,-7528.0,8040.0,-197.0,8027.0,-1013.0
-5084.0,-8012.0,5072.0,-1660.0,2818.0,-3015.0
-5016.0,-9912.0,6816.0,-3402.0,-3403.0,-3561.0
-4380.0,-10196.0,7896.0,-2324.0,-9581.0,-2642.0
-3088.0,-9120.0,12236.0,459.0,-14249.0,988.0
-3028.0,-5992.0,16280.0,-321.0,-16238.0,2950.0
-2364.0,-5100.0,20096.0,-2431.0,-14459.0,1381.0
-3028.0,-7984.0,28280.0,-3842.0,-9304.0,-2062.0
-3196.0,-9220.0,30080.0,867.0,-393.0,-1949.0
-2632.0,-8812.0,25544.0,-301.0,10320.0,-32.0
-1992.0,-7388.0,21764.0,-1241.0,14180.0,1090.0
-2220.0,-7692.0,17112.0,-2314.0,16710.0,624.0
-3456.0,-7888.0,11272.0,-2889.0,15020.0,3439.0
-4676.0,-8412.0,7836.0,39.0,8794.0,4063.0
-5600.0,-8356.0,6508.0,-3353.0,5785.0,4002.0
-5532.0,-6824.0,4688.0,-2406.0,-1843.0,254.0
-6164.0,-9008.0,7448.0,-2408.0,-7989.0,-1965.0
-5828.0,-8180.0,10852.0,-3141.0,-11411.0,-494.0
-5584.0,-6484.0,16720.0,1922.0,-16414.0,2118.0
-3804.0,-4148.0,20864.0,-2414.0,-10529.0,-2327.0
-5112.0,-6164.0,24000.0,-174.0,-8634.0,-4601.0
-4532.0,-8060.0,27880.0,908.0,275.0,-5056.0
-4560.0,-9160.0,25504.0,1896.0,8877.0,-3901.0
-3640.0,-7652.0,21508.0,2694.0,12926.0,-2420.0
-3356.0,-6532.0,16108.0,1361.0,15295.0,-2422.0
-4316.0,-7260.0,11284.0,-1819.0,13772.0,-2586.0
-5556.0,-7556.0,7004.0,-1832.0,8122.0,-1828.0
-6500.0,-9220.0,4600.0,-4218.0,2462.0,-2534.0
-4640.0,-9624.0,6608.0,-1619.0,-5669.0,-2777.0
-3804.0,-11528.0,9580.0,873.0,-12114.0,-540.0
-2768.0,-10220.0,12676.0,1217.0,-15855.0,3130.0
-2244.0,-9192.0,17600.0,-899.0,-16967.0,8735.0
244.0,-1040.0,21084.0,-2101.0,-15293.0,6798.0
-2380.0,-3736.0,26732.0,-3240.0,-8526.0,-2066.0
-4868.0,-7940.0,28224.0,-1447.0,-1313.0,-2917.0
-3180.0,-8232.0,27100.0,-27.0,8043.0,-1741.0
-2160.0,-7468.0,23432.0,-1097.0,15520.0,155.0
-1940.0,-6928.0,17944.0,-2563.0,18939.0,912.0
-3544.0,-6556.0,11680.0,-3007.0,17447.0,89.0
-5860.0,-7268.0,7612.0,-2303.0,9565.0,254.0
-6360.0,-7612.0,5304.0,-3392.0,4138.0,-3565.0
-5416.0,-8556.0,6872.0,-3011.0,-1672.0,-2854.0
-4592.0,-10292.0,8652.0,379.0,-8944.0,-5726.0
-3360.0,-10368.0,11148.0,-1611.0,-10767.0,-1798.0
-4128.0,-11464.0,13028.0,1051.0,-13944.0,1128.0
-3896.0,-9320.0,18316.0,2216.0,-15973.0,6749.0
-1372.0,-5632.0,20480.0,-80.0,-12577.0,3715.0
-1784.0,-4284.0,25020.0,-1097.0,-5606.0,-487.0
-3868.0,-7432.0,26572.0,1064.0,436.0,-3087.0
-3996.0,-7680.0,24128.0,197.0,9159.0,-2984.0
-3212.0,-7100.0,20736.0,-438.0,13080.0,-2916.0
-2432.0,-6272.0,16784.0,-857.0,12831.0,-2455.0
-3144.0,-6916.0,12832.0,-2401.0,13803.0,-5421.0
-5068.0,-9580.0,9548.0,63.0,6369.0,-4796.0
-3684.0,-8956.0,7928.0,-3328.0,3263.0,-4430.0
-4032.0,-10908.0,8876.0,-5.0,-3254.0,-1375.0
-4372.0,-12260.0,9820.0,-983.0,-7054.0,1787.0
-2888.0,-11024.0,13156.0,743.0,-10396.0,7904.0
-3476.0,-8592.0,16640.0,390.0,-12456.0,10760.0
-3500.0,-4684.0,19416.0,818.0,-12005.0,11652.0
-3100.0,-2216.0,23060.0,-3742.0,-2690.0,2940.0
-5984.0,-5568.0,23020.0,-2039.0,1188.0,-2855.0
-5984.0,-6616.0,22948.0,-112.0,5857.0,-3316.0
-4768.0,-6776.0,20512.0,-2009.0,12186.0,-3555.0
-4716.0,-6828.0,17740.0,-2072.0,13051.0,-2029.0
-4560.0,-6316.0,14672.0,-3166.0,16526.0,-5094.0
-7180.0,-9884.0,11764.0,-1053.0,11665.0,-3793.0
-6468.0,-8368.0,8204.0,-2176.0,6520.0,-3089.0
-7888.0,-11656.0,6484.0,-1639.0,1257.0,-520.0
-5544.0,-9040.0,5444.0,-2702.0,-5132.0,-1329.0
-4904.0,-11816.0,8796.0,857.0,-11700.0,785.0
-3184.0,-9696.0,12528.0,701.0,-13692.0,2317.0
-2272.0,-6604.0,14692.0,9436.0,-21140.0,8350.0
-1612.0,-2184.0,20052.0,3110.0,-17429.0,6772.0
-3216.0,-3224.0,24124.0,-671.0,-10233.0,-1348.0
-4584.0,-6820.0,27632.0,-86.0,-4381.0,-3794.0
-3200.0,-6760.0,27008.0,377.0,4471.0,-1933.0
-1212.0,-6132.0,25196.0,44.0,13584.0,-2164.0
-3180.0,-7068.0,19740.0,-5483.0,16124.0,1165.0
-3404.0,-5940.0,17040.0,-6554.0,18429.0,1442.0
-4516.0,-4164.0,12408.0,-5619.0,17085.0,-1611.0
-5516.0,-5288.0,7788.0,-8236.0,11044.0,-9587.0
-7720.0,-11636.0,8104.0,-5547.0,3697.0,-8564.0
-7772.0,-12940.0,2784.0,-4074.0,-3281.0,-1104.0
-5944.0,-14456.0,7768.0,-3881.0,-6282.0,4141.0
-4824.0,-10252.0,10180.0,-4194.0,-8400.0,7412.0
-5208.0,-8396.0,12176.0,-5917.0,-12210.0,7249.0
-4180.0,-5068.0,14908.0,-6532.0,-13397.0,2545.0
-4820.0,-5888.0,19924.0,-1080.0,-13660.0,-2693.0
-5024.0,-7380.0,21756.0,-2667.0,-5243.0,-7862.0
-6952.0,-11636.0,20216.0,-866.0,-122.0,-6619.0
-4544.0,-13360.0,22820.0,924.0,5430.0,-5408.0
-5092.0,-12736.0,18784.0,891.0,9708.0,-31.0
-3388.0,-10020.0,16944.0,1593.0,13842.0,1993.0
-5160.0,-8636.0,9912.0,-95.0,16349.0,993.0
-5044.0,-7332.0,8684.0,3975.0,7593.0,629.0
-6336.0,-8376.0,6196.0,-210.0,4687.0,-3185.0
-7576.0,-9928.0,4996.0,164.0,16.0,-3405.0
-6016.0,-10752.0,6604.0,-408.0,-4518.0,-3096.0
-5520.0,-10984.0,8040.0,5322.0,-13054.0,-1510.0
-3868.0,-11192.0,11424.0,1889.0,-14076.0,2154.0
-2816.0,-8560.0,15044.0,-2151.0,-13745.0,5275.0
-1584.0,-6980.0,19056.0,65.0,-17241.0,5716.0
-1272.0,-5540.0,24696.0,-2687.0,-9206.0,1006.0
-3460.0,-8272.0,25008.0,-1646.0,-2701.0,-1665.0
-3840.0,-9148.0,23720.0,1187.0,4772.0,-1154.0
-3020.0,-9076.0,22572.0,483.0,11209.0,90.0
-2148.0,-7392.0,19740.0,1581.0,13502.0,88.0
-3084.0,-7008.0,15252.0,-2161.0,16482.0,1874.0
-3976.0,-6324.0,10628.0,-2682.0,16716.0,-1020.0
-6600.0,-6932.0,5712.0,-2086.0,6816.0,-3207.0
-6432.0,-7160.0,4576.0,-5752.0,2572.0,-5480.0
-6696.0,-12224.0,7912.0,-2652.0,-5242.0,-6110.0
-4724.0,-11264.0,9112.0,60.0,-11780.0,-2221.0
-4320.0,-11844.0,11680.0,-83.0,-12857.0,3788.0
-3808.0,-9764.0,18064.0,3961.0,-17394.0,7766.0
-1596.0,-4788.0,19208.0,2947.0,-11499.0,4752.0
-3676.0,-7332.0,23456.0,2159.0,-6502.0,723.0
-3300.0,-5304.0,25184.0,2146.0,-513.0,-38.0
-4472.0,-6240.0,24376.0,3817.0,7020.0,-3881.0
-4392.0,-6260.0,19740.0,243.0,12574.0,-4331.0
-3768.0,-5472.0,15432.0,-1983.0,13464.0,-6465.0
-4432.0,-8304.0,13888.0,-5050.0,12235.0,-7242.0
-4616.0,-9428.0,9036.0,-5965.0,5271.0,-7609.0
-5360.0,-13032.0,9712.0,-1923.0,2456.0,341.0
-4448.0,-12500.0,10852.0,-1137.0,-2027.0,8700.0
-5416.0,-12400.0,11220.0,3620.0,-7640.0,16676.0
-3480.0,-4556.0,14756.0,976.0,-9464.0,14413.0
-2908.0,-1188.0,16100.0,2132.0,-11251.0,8655.0
-3428.0,-512.0,19972.0,1376.0,-10031.0,1593.0
-3464.0,1900.0,20044.0,-703.0,-5650.0,-11562.0
-5328.0,-5640.0,23112.0,-593.0,-4722.0,-18101.0
-4468.0,-10584.0,25128.0,-2721.0,2517.0,-15462.0
-5116.0,-11372.0,17784.0,-3645.0,9774.0,464.0
-4392.0,-10900.0,16628.0,1264.0,10358.0,7889.0
-6268.0,-12936.0,15468.0,1195.0,9011.0,13442.0
-2640.0,-4212.0,12552.0,324.0,7934.0,23408.0
-3472.0,2752.0,13200.0,-1035.0,5080.0,15827.0
-7200.0,1440.0,13056.0,-1002.0,-359.0,3079.0
-7020.0,4960.0,13732.0,-2541.0,-2082.0,-12744.0
-8828.0,-5600.0,22696.0,-875.0,-3183.0,-25786.0
-7772.0,-5276.0,15728.0,-9530.0,7772.0,-16370.0
-9592.0,-13728.0,16828.0,-5289.0,7479.0,-10711.0
-6496.0,-9500.0,11784.0,-2592.0,2294.0,-1191.0
-5832.0,-10276.0,8352.0,319.0,-2931.0,2439.0
-5948.0,-10980.0,9680.0,4127.0,-7289.0,6170.0
-5336.0,-8772.0,11288.0,4079.0,-14711.0,12485.0
188.0,72.0,13784.0,11629.0,-25863.0,13136.0
736.0,1404.0,19340.0,3203.0,-18256.0,3660.0
-132.0,-652.0,23240.0,646.0,-18305.0,-4109.0
-636.0,-2416.0,28352.0,208.0,-9906.0,-5151.0
-404.0,-3624.0,30016.0,1551.0,2757.0,-3236.0
1284.0,-1296.0,26092.0,1437.0,14636.0,-5137.0
200.0,-732.0,21072.0,-5990.0,24954.0,-6569.0
-4608.0,-2056.0,13404.0,-15560.0,26122.0,-9583.0
-5592.0,-5416.0,15720.0,-17467.0,19178.0,-12204.0
-7284.0,-9636.0,9512.0,-18187.0,15022.0,-9819.0
-5692.0,-8836.0,9824.0,-13110.0,7842.0,-4792.0
-6484.0,-11432.0,6472.0,-8898.0,662.0,-7065.0
-5812.0,-12904.0,8260.0,-3907.0,-2624.0,239.0
-5956.0,-12352.0,5232.0,550.0,-11096.0,6688.0
-4940.0,-11480.0,9608.0,8959.0,-16897.0,13269.0
-628.0,-3120.0,12660.0,7929.0,-22327.0,15052.0
-5088.0,-5784.0,16688.0,20358.0,-24076.0,7172.0
-2688.0,-568.0,23960.0,9343.0,-17002.0,11827.0
-1816.0,-1088.0,25196.0,6678.0,-16870.0,2990.0
720.0,528.0,27936.0,4268.0,853.0,-1481.0
-2640.0,-3240.0,22440.0,-131.0,7165.0,-8662.0
-944.0,-424.0,22168.0,-3296.0,17660.0,-6622.0
-2004.0,-1428.0,20560.0,-6927.0,23459.0,-11239.0
-4060.0,-3352.0,16372.0,-11242.0,24983.0,-12518.0
-6368.0,-5080.0,11620.0,-13756.0,25958.0,-12847.0
-8288.0,-7768.0,10160.0,-13131.0,15721.0,-13346.0
-10184.0,-11708.0,6840.0,-9330.0,8485.0,-6997.0
-9588.0,-12116.0,8924.0,-3865.0,330.0,-1157.0
-8708.0,-11436.0,6760.0,-1275.0,-9118.0,6377.0
-7612.0,-11692.0,7060.0,-445.0,-9049.0,9992.0
-6232.0,-8804.0,7684.0,11611.0,-32351.0,19500.0
2604.0,-1488.0,17436.0,3025.0,-29228.0,10450.0
-2204.0,-3136.0,16044.0,8405.0,-29966.0,2093.0
-1492.0,-2380.0,20832.0,10131.0,-25376.0,7538.0
892.0,-56.0,23480.0,11249.0,-20423.0,3150.0
5444.0,2984.0,28560.0,4667.0,-6231.0,844.0
5132.0,2348.0,26152.0,125.0,4772.0,-5704.0
3484.0,640.0,25952.0,-1798.0,14432.0,-8129.0
3832.0,2596.0,20484.0,-5950.0,23936.0,-11052.0
772.0,20.0,18088.0,-25247.0,32767.0,-14107.0
-2780.0,-2856.0,8252.0,-29665.0,32767.0,-20447.0
-9364.0,-11572.0,3536.0,-22028.0,19246.0,-20807.0
-9228.0,-13892.0,1956.0,-16081.0,8557.0,-12306.0
-8700.0,-16424.0,6348.0,-11360.0,1490.0,-2057.0
-7536.0,-15316.0,4736.0,9414.0,-10821.0,10100.0
-5432.0,-12180.0,10084.0,8814.0,-7025.0,14082.0
-10192.0,-13572.0,11196.0,20713.0,-21824.0,22257.0
-1900.0,-2072.0,8428.0,32603.0,-29068.0,28075.0
-2592.0,3620.0,16976.0,31507.0,-29214.0,21274.0
2592.0,10128.0,15244.0,15257.0,-25957.0,16163.0
-124.0,8440.0,23152.0,7502.0,-10584.0,4097.0
-64.0,9896.0,23172.0,437.0,-1013.0,-1801.0
-360.0,9284.0,23056.0,-5904.0,7733.0,-10212.0
1148.0,9172.0,19076.0,-15538.0,9691.0,-22489.0
-4756.0,-3988.0,18648.0,-29033.0,22948.0,-21049.0
-6024.0,-3544.0,12492.0,-32768.0,20667.0,-19593.0
-5412.0,-5480.0,8436.0,-32339.0,15645.0,-17545.0
-6608.0,-16176.0,12136.0,-24142.0,10532.0,-21081.0
-5888.0,-15184.0,10344.0,-3540.0,-3425.0,-7806.0
-6956.0,-15748.0,9648.0,5175.0,-5476.0,3381.0
-6736.0,-15364.0,11476.0,20322.0,-6309.0,14258.0
-5364.0,-9216.0,8060.0,32767.0,-22957.0,22976.0
-1728.0,-1796.0,10544.0,32767.0,-30289.0,20025.0
1060.0,3372.0,17676.0,32767.0,-19369.0,16238.0
-352.0,6248.0,16328.0,23344.0,-17212.0,12176.0
5292.0,13496.0,22316.0,2544.0,139.0,7170.0
3064.0,13568.0,19412.0,-2787.0,4432.0,-4399.0
2336.0,10672.0,19420.0,-17411.0,10492.0,-20744.0
120.0,4748.0,18444.0,-30254.0,16192.0,-17851.0
-3120.0,-2876.0,16284.0,-32768.0,17860.0,-24268.0
-5516.0,-4772.0,8428.0,-32768.0,13624.0,-14327.0
-3360.0,-13972.0,14944.0,-32768.0,8625.0,-23328.0
-3452.0,-12696.0,10004.0,-4743.0,-2052.0,-11318.0
-7508.0,-18976.0,13572.0,5403.0,265.0,2565.0
-3688.0,-16692.0,14492.0,17828.0,-6698.0,21554.0
-2832.0,-7652.0,13104.0,32767.0,-11450.0,22028.0
-2252.0,-2168.0,15164.0,32621.0,-9002.0,25124.0
-1552.0,5700.0,14180.0,32767.0,-19110.0,17668.0
-2568.0,6676.0,14004.0,24389.0,-22627.0,15613.0
4716.0,13352.0,24324.0,3148.0,5833.0,6163.0
56.0,11284.0,18500.0,-4640.0,10165.0,-4576.0
3436.0,13440.0,14612.0,-21025.0,10494.0,-23854.0
-4424.0,-7324.0,20872.0,-32768.0,21646.0,-23109.0
-5392.0,2452.0,10936.0,-32768.0,20391.0,-14906.0
-9580.0,-14836.0,14284.0,-32768.0,10776.0,-16604.0
-3616.0,-5908.0,10028.0,-22208.0,3436.0,-16374.0
-9916.0,-19012.0,12096.0,-7096.0,3055.0,-3928.0
-6384.0,-15320.0,17256.0,13858.0,-3065.0,8343.0
-7028.0,-10544.0,7432.0,31131.0,-9537.0,19531.0
-4004.0,-4464.0,12656.0,32767.0,-22897.0,23784.0
-3040.0,2204.0,15328.0,32767.0,-13379.0,14413.0
-2100.0,7044.0,11088.0,32767.0,-18318.0,14368.0
4844.0,13448.0,18128.0,9613.0,-6634.0,8795.0
2280.0,13636.0,18040.0,-3621.0,6729.0,-1237.0
1740.0,13556.0,19084.0,-15806.0,12313.0,-14379.0
-4204.0,4396.0,15048.0,-30917.0,13884.0,-21733.0
-4712.0,-656.0,15772.0,-32768.0,18814.0,-18360.0
-7932.0,-7148.0,11612.0,-32768.0,13524.0,-15817.0
-6140.0,-10328.0,13004.0,-31500.0,7900.0,-15785.0
-8420.0,-12188.0,7968.0,-15424.0,1178.0,-5140.0
-8304.0,-16484.0,15932.0,1900.0,-1053.0,-563.0
-7544.0,-11020.0,8524.0,29964.0,-11814.0,7498.0
-7092.0,-9524.0,16680.0,32767.0,-6910.0,13602.0
-4716.0,-80.0,14592.0,32767.0,-19510.0,14866.0
-4004.0,-1064.0,13136.0,32767.0,-17815.0,16368.0
188.0,10552.0,11132.0,31942.0,-14576.0,12393.0
3096.0,14384.0,19520.0,176.0,3213.0,4305.0
428.0,13496.0,15884.0,-1144.0,343.0,-3255.0
8.0,12712.0,16476.0,-22233.0,12466.0,-10223.0
-1800.0,8236.0,16876.0,-32768.0,18404.0,-20597.0
-6088.0,-2792.0,13784.0,-32768.0,22611.0,-18170.0
-6392.0,-7468.0,10372.0,-32768.0,18865.0,-18456.0
-5680.0,-8496.0,5204.0,-29702.0,4974.0,-21003.0
-8404.0,-21716.0,11380.0,-11909.0,-745.0,-11354.0
-6052.0,-16732.0,15456.0,-5599.0,-1953.0,-2916.0
-8868.0,-22048.0,13972.0,32767.0,-7304.0,13536.0
-6228.0,-12040.0,6648.0,32767.0,-3743.0,24908.0
-5860.0,-5188.0,13124.0,32767.0,-21600.0,32767.0
2628.0,9568.0,9116.0,32767.0,-20282.0,23746.0
4116.0,15044.0,13136.0,13588.0,-1617.0,16106.0
912.0,12640.0,16868.0,-641.0,2038.0,1897.0
300.0,15512.0,18700.0,-11776.0,9939.0,-9852.0
-1012.0,12896.0,11996.0,-31033.0,9146.0,-26810.0
-3896.0,-5572.0,19044.0,-32768.0,12620.0,-32768.0
-9804.0,-6980.0,7656.0,-32768.0,13873.0,-14563.0
-6356.0,-13616.0,14568.0,-29490.0,4779.0,-18588.0
-5512.0,-9560.0,8332.0,-13675.0,-3520.0,-7175.0
-8364.0,-21116.0,18604.0,-2943.0,2562.0,-2602.0
-5044.0,-11572.0,10456.0,25272.0,-6506.0,11117.0
-6672.0,-11232.0,15520.0,30248.0,-3202.0,17799.0
-5028.0,-4108.0,10092.0,32767.0,-22938.0,22738.0
-1844.0,3820.0,16704.0,32767.0,-8963.0,17551.0
788.0,11528.0,9128.0,28685.0,-7878.0,15777.0
4856.0,19380.0,17568.0,3275.0,5122.0,5330.0
-188.0,13440.0,15964.0,-6003.0,-1375.0,-6338.0
-1180.0,12948.0,16960.0,-17664.0,7193.0,-14666.0
728.0,8740.0,15080.0,-32768.0,13851.0,-25297.0
-8760.0,-10700.0,14164.0,-32768.0,15478.0,-18071.0
-5104.0,-2936.0,9168.0,-32768.0,17144.0,-16266.0
-7656.0,-15388.0,9540.0,-26108.0,4378.0,-17029.0
-5344.0,-13924.0,11040.0,-18527.0,3184.0,-14149.0
-8924.0,-20588.0,10140.0,-5133.0,2308.0,-2063.0
-5584.0,-13788.0,8648.0,18765.0,-2353.0,8446.0
-10160.0,-17364.0,9176.0,31262.0,-8368.0,19203.0
-5288.0,-8832.0,10400.0,32767.0,-22709.0,25762.0
-2832.0,2292.0,15784.0,32767.0,-15163.0,15601.0
-3444.0,4020.0,14496.0,32767.0,-19442.0,14645.0
2148.0,10892.0,12236.0,25594.0,-18565.0,11026.0
3484.0,14752.0,18748.0,956.0,4149.0,3867.0
1116.0,14888.0,16032.0,-5768.0,2018.0,-6165.0
596.0,10876.0,19112.0,-26912.0,7383.0,-16702.0
-3632.0,1240.0,22940.0,-22664.0,15855.0,-11202.0
-7164.0,-1308.0,14908.0,-10499.0,13720.0,-3964.0
-5528.0,-1000.0,15488.0,-13750.0,16497.0,1137.0
-5072.0,3832.0,8620.0,-1909.0,9732.0,5713.0
-8592.0,-1024.0,16560.0,-32768.0,22261.0,-6246.0
-5904.0,-2996.0,7464.0,-32768.0,17777.0,-28151.0
-9992.0,-21456.0,11884.0,-21618.0,-2093.0,-28091.0
-6992.0,-14824.0,7868.0,-4989.0,-6555.0,-17044.0
-10468.0,-21012.0,13144.0,12772.0,-6740.0,4583.0
-3980.0,-11544.0,12940.0,19792.0,-1797.0,9420.0
-8800.0,-12192.0,10516.0,32767.0,-11963.0,15438.0
-3984.0,-1052.0,8080.0,32767.0,-23930.0,14542.0
-5988.0,-4032.0,22012.0,20290.0,-3999.0,7850.0
-628.0,6632.0,15196.0,12651.0,-8422.0,3527.0
-2060.0,5208.0,17888.0,12876.0,-5017.0,4459.0
-1988.0,5388.0,18212.0,3035.0,-2789.0,191.0
-3040.0,4968.0,19300.0,977.0,3333.0,-3904.0
-3524.0,2584.0,20416.0,907.0,-3344.0,-4899.0
-3968.0,4820.0,19156.0,13032.0,-2249.0,-2457.0
-2944.0,5844.0,14984.0,15402.0,-4172.0,2225.0
124.0,9264.0,16028.0,8208.0,-1910.0,2799.0
-352.0,9164.0,16124.0,6580.0,-1803.0,1131.0
-2268.0,8268.0,16464.0,3439.0,-890.0,1073.0
-704.0,9764.0,16192.0,1212.0,688.0,3657.0
-1316.0,10272.0,15828.0,3564.0,-88.0,5314.0
-172.0,12728.0,16340.0,-3471.0,-1840.0,1753.0
276.0,12872.0,15232.0,-23020.0,4973.0,-4933.0
1808.0,12304.0,16880.0,-32768.0,24288.0,-13386.0
-4788.0,-2392.0,14508.0,-32768.0,28149.0,-22286.0
-6880.0,-4808.0,10132.0,-32768.0,12800.0,-15985.0
-4772.0,-8840.0,9212.0,-32768.0,15709.0,-23676.0
-6756.0,-16308.0,6108.0,-26910.0,3866.0,-23074.0
-11452.0,-26076.0,12108.0,-3818.0,2003.0,-2786.0
-3460.0,-13364.0,7068.0,22642.0,-9048.0,11188.0
-7340.0,-14524.0,9292.0,27140.0,-7248.0,14173.0
-4324.0,-10028.0,14552.0,25796.0,-11348.0,16623.0
-3460.0,-2008.0,13712.0,32767.0,-16567.0,15501.0
-4668.0,-1392.0,14328.0,32767.0,-25795.0,15035.0
1744.0,9636.0,15656.0,26540.0,-16815.0,10119.0
4476.0,13060.0,20304.0,-1651.0,-1161.0,2391.0
1680.0,10108.0,23636.0,-27214.0,18053.0,-10486.0
-3300.0,604.0,24512.0,-27690.0,18243.0,-10901.0
-4308.0,1112.0,16140.0,-32768.0,32767.0,-7315.0
-6144.0,-1868.0,6148.0,-32768.0,26882.0,-18113.0
-3752.0,-7888.0,5440.0,-26093.0,6156.0,-27557.0
-1864.0,-12868.0,180.0,-20678.0,-6357.0,-30804.0
-6684.0,-24412.0,11740.0,-4477.0,-18060.0,-12924.0
3556.0,-9680.0,4284.0,13326.0,-26432.0,720.0
856.0,-15712.0,18688.0,4205.0,-15311.0,-389.0
1356.0,-10268.0,17956.0,11039.0,-11693.0,2166.0
-1176.0,-16292.0,26296.0,2104.0,3720.0,2126.0
-2700.0,-15632.0,22708.0,6294.0,9407.0,5450.0
-424.0,-9860.0,21716.0,2522.0,28107.0,7307.0
-2256.0,-6968.0,12112.0,3795.0,12025.0,441.0
-1240.0,-6392.0,7660.0,-7719.0,14801.0,-7824.0
-3932.0,-14616.0,9544.0,-4375.0,8795.0,-7374.0
-2540.0,-12784.0,3248.0,-9696.0,4078.0,-1558.0
-1112.0,-13196.0,7408.0,-4907.0,-1708.0,154.0
-1152.0,-11656.0,6992.0,2239.0,-10658.0,-518.0
-1180.0,-11032.0,9200.0,3091.0,-14225.0,2461.0
-760.0,-8168.0,12488.0,6842.0,-16303.0,3817.0
-2116.0,-9864.0,20256.0,7778.0,-18317.0,107.0
-1208.0,-8272.0,19548.0,3670.0,-19481.0,-4333.0
-2408.0,-11744.0,27012.0,823.0,-4261.0,-717.0
-844.0,-12176.0,27184.0,976.0,5746.0,515.0
-440.0,-10800.0,24752.0,-1056.0,19552.0,3274.0
-2012.0,-10780.0,16352.0,-1804.0,19826.0,5052.0
-588.0,-6348.0,15096.0,1630.0,20458.0,3122.0
-3204.0,-6952.0,5976.0,-5975.0,16520.0,-3989.0
-4288.0,-10460.0,6288.0,756.0,7659.0,-2053.0
-3688.0,-9332.0,3556.0,-10460.0,7081.0,-4888.0
-3684.0,-12476.0,7628.0,-1513.0,-5787.0,-3881.0
-1436.0,-9908.0,7096.0,-2652.0,-9859.0,-5143.0
-2040.0,-12548.0,10472.0,5.0,-18181.0,-2695.0
-1864.0,-11328.0,14236.0,4033.0,-28591.0,2545.0
-220.0,-9720.0,18376.0,501.0,-21330.0,1304.0
860.0,-7676.0,21472.0,3663.0,-16731.0,-1707.0
-504.0,-10252.0,22532.0,641.0,-13976.0,-2103.0
472.0,-11436.0,23536.0,-2240.0,-1513.0,318.0
1652.0,-12508.0,24076.0,1390.0,9958.0,696.0
2040.0,-10232.0,21456.0,-1359.0,21444.0,2714.0
1124.0,-10884.0,21744.0,-3082.0,24030.0,4378.0
1088.0,-7924.0,15056.0,-7238.0,31406.0,2631.0
-5276.0,-10204.0,4404.0,-8503.0,23009.0,2281.0
-4440.0,-7520.0,4444.0,-3441.0,3789.0,1016.0
-4496.0,-10196.0,5784.0,-4791.0,2570.0,-3517.0
-3880.0,-9564.0,3060.0,-3141.0,-3872.0,-6436.0
-1456.0,-11920.0,7288.0,-4753.0,-11104.0,-10834.0
-2664.0,-13912.0,8204.0,1212.0,-16332.0,-2735.0
-2060.0,-15448.0,14940.0,766.0,-16733.0,1676.0
0.0,-11536.0,13984.0,7212.0,-25088.0,6863.0
1580.0,-8160.0,20628.0,1101.0,-12159.0,1129.0
-1272.0,-11204.0,23396.0,5553.0,-16727.0,-3646.0
-608.0,-11656.0,25364.0,802.0,2311.0,-226.0
-300.0,-11096.0,22956.0,1062.0,11498.0,-754.0
-64.0,-10340.0,19852.0,-1424.0,15404.0,470.0
436.0,-9924.0,18680.0,-4561.0,26693.0,212.0
-3076.0,-11540.0,12976.0,-4324.0,18996.0,2397.0
-2648.0,-8220.0,9480.0,-6911.0,22204.0,1868.0
-5748.0,-8468.0,4032.0,-6611.0,9992.0,-1677.0
-4900.0,-10432.0,3900.0,-9547.0,6785.0,-3372.0
-3784.0,-11232.0,3776.0,-7178.0,-484.0,-5973.0
-3652.0,-13496.0,5212.0,-925.0,-11175.0,-3174.0
-3188.0,-13944.0,8092.0,574.0,-16375.0,-4.0
-2832.0,-12672.0,11292.0,3247.0,-19664.0,2902.0
-2036.0,-10732.0,13800.0,7010.0,-18922.0,4174.0
-2624.0,-8728.0,18112.0,3715.0,-20627.0,3482.0
-3508.0,-10080.0,23064.0,1033.0,-11575.0,-1885.0
-3788.0,-13188.0,23884.0,521.0,-430.0,-3802.0
-3428.0,-12800.0,21740.0,367.0,9645.0,-2654.0
-3028.0,-12408.0,19000.0,-2465.0,16760.0,117.0
-3012.0,-12028.0,16804.0,-2729.0,17364.0,2143.0
-3276.0,-11192.0,13048.0,-2789.0,17290.0,2531.0
-4352.0,-10160.0,9428.0,-2463.0,15169.0,4046.0
-5072.0,-8960.0,5300.0,-1082.0,10952.0,1035.0
-5992.0,-9312.0,4492.0,-3356.0,4862.0,76.0
-4252.0,-7904.0,516.0,-4743.0,3753.0,-5799.0
-4844.0,-11852.0,4552.0,-2995.0,-5969.0,-4541.0
-3996.0,-11624.0,4516.0,-4788.0,-15791.0,-6084.0
-3056.0,-13976.0,11992.0,-1125.0,-20500.0,-2602.0
-1848.0,-11852.0,16636.0,-264.0,-21883.0,-2732.0
-44.0,-8764.0,19676.0,1234.0,-17446.0,-4897.0
-2520.0,-15276.0,21180.0,1475.0,-9804.0,-8000.0
-3508.0,-18108.0,23060.0,1214.0,1197.0,-2722.0
-1676.0,-15540.0,20108.0,1964.0,7123.0,1171.0
-1296.0,-14384.0,19448.0,1538.0,15190.0,3741.0
-2972.0,-14344.0,17508.0,-1209.0,16146.0,7456.0
-2060.0,-10056.0,14548.0,-2069.0,20604.0,9520.0
-5000.0,-8352.0,6020.0,-5717.0,15925.0,6493.0
-3428.0,-3752.0,5296.0,-4945.0,13945.0,-1121.0
-5532.0,-9564.0,1896.0,-8259.0,16799.0,-9294.0
-4876.0,-11556.0,-728.0,-671.0,-2460.0,-7594.0
-3120.0,-13628.0,2556.0,-5844.0,-6751.0,-6543.0
-4160.0,-15252.0,4464.0,2698.0,-15916.0,-1884.0
-2324.0,-14576.0,5632.0,2127.0,-18945.0,4523.0
-2812.0,-8932.0,12008.0,14255.0,-28096.0,9009.0
2184.0,-4632.0,20992.0,1176.0,-19150.0,-1592.0
-2836.0,-11744.0,22608.0,861.0,-14775.0,-9877.0
-3980.0,-14760.0,25168.0,1389.0,-3809.0,-4328.0
-4072.0,-14688.0,21532.0,897.0,5588.0,-964.0
-1836.0,-12556.0,21344.0,-738.0,16091.0,2522.0
-2616.0,-12400.0,17672.0,-2570.0,14873.0,4204.0
-1344.0,-9440.0,15200.0,-3274.0,18861.0,4198.0
-4544.0,-10420.0,7984.0,-3613.0,16873.0,4023.0
-4364.0,-8892.0,9396.0,1918.0,9163.0,1881.0
-7424.0,-10056.0,2504.0,2441.0,4930.0,865.0
-5028.0,-6620.0,4136.0,-2448.0,1641.0,-2974.0
-6304.0,-10144.0,2312.0,-1440.0,-3019.0,-5119.0
-4584.0,-9928.0,3728.0,-5878.0,-11601.0,-5928.0
-2104.0,-12716.0,11752.0,-3332.0,-19869.0,-2856.0
764.0,-9556.0,15896.0,-5277.0,-25175.0,-6059.0
-248.0,-11948.0,21560.0,-438.0,-17662.0,-5878.0
-2524.0,-16940.0,25608.0,645.0,-8574.0,-3778.0
-2860.0,-15284.0,21652.0,2017.0,5706.0,-197.0
-2584.0,-13996.0,21444.0,1011.0,12610.0,3835.0
-1796.0,-11960.0,17636.0,346.0,15593.0,4606.0
-1668.0,-10204.0,14456.0,-1847.0,18663.0,6430.0
-3460.0,-10240.0,11980.0,-3332.0,13258.0,6166.0
-4608.0,-9456.0,7860.0,-983.0,10359.0,5343.0
-5620.0,-7360.0,3948.0,-3635.0,4624.0,1320.0
-7036.0,-10084.0,3764.0,-3042.0,429.0,-1303.0
-4740.0,-8340.0,1864.0,-1876.0,-5243.0,-4700.0
-4560.0,-13844.0,8008.0,-137.0,-7690.0,-3902.0
-4480.0,-10524.0,7260.0,824.0,-13603.0,-3908.0
-2084.0,-11268.0,13772.0,859.0,-19211.0,-489.0
-548.0,-8980.0,19268.0,-341.0,-19424.0,-1878.0
-2216.0,-12140.0,21920.0,4794.0,-18626.0,-3461.0
-2980.0,-14596.0,25960.0,2070.0,-2276.0,-3038.0
-4512.0,-13728.0,21480.0,1470.0,5296.0,379.0
-2976.0,-12652.0,21584.0,318.0,11736.0,2919.0
-1692.0,-10572.0,19304.0,-667.0,17839.0,3487.0
-1856.0,-10292.0,17364.0,758.0,15897.0,4492.0
-3416.0,-9068.0,10364.0,-120.0,13631.0,4667.0
-4772.0,-7560.0,7068.0,-3171.0,12485.0,4535.0
-5448.0,-6084.0,3096.0,-2473.0,8139.0,-439.0
-5704.0,-8368.0,4232.0,-2636.0,4757.0,-7416.0
-5492.0,-11252.0,3332.0,-90.0,-8572.0,-5737.0
-5060.0,-12312.0,6692.0,-2785.0,-12032.0,-2633.0
-3968.0,-10776.0,9900.0,386.0,-19001.0,74.0
-980.0,-7984.0,19160.0,-2935.0,-21298.0,117.0
-2172.0,-9672.0,24228.0,-728.0,-19237.0,-3860.0
-4116.0,-12976.0,26368.0,1067.0,-5611.0,-3806.0
-3920.0,-13424.0,23840.0,2046.0,4148.0,-1597.0
-2316.0,-12048.0,21724.0,0.0,12359.0,222.0
-2896.0,-12264.0,17328.0,-280.0,12584.0,2369.0
-2140.0,-10776.0,16200.0,134.0,15785.0,4866.0
-3728.0,-8864.0,9348.0,-696.0,14612.0,5122.0
-4152.0,-7780.0,8556.0,734.0,8640.0,2953.0
-5908.0,-7316.0,4664.0,518.0,4375.0,352.0
-6176.0,-7300.0,3948.0,-3421.0,411.0,-2400.0
-4764.0,-8156.0,4312.0,-4177.0,-5380.0,-3945.0
-4444.0,-10988.0,9700.0,-871.0,-9864.0,-5518.0
-3436.0,-10900.0,12088.0,-4745.0,-13123.0,-465.0
-3640.0,-11452.0,19364.0,2008.0,-18524.0,-508.0
-2684.0,-8184.0,22796.0,-1208.0,-14712.0,-350.0
-3920.0,-10184.0,23380.0,-1180.0,-6497.0,-3300.0
-3740.0,-13816.0,25492.0,1007.0,1447.0,-2222.0
-2600.0,-12784.0,22092.0,1534.0,9141.0,-658.0
-1700.0,-11708.0,20528.0,847.0,13889.0,1798.0
-2612.0,-11232.0,16828.0,-1366.0,14328.0,4527.0
-3456.0,-8216.0,10324.0,-1895.0,13844.0,6460.0
-5168.0,-7224.0,6760.0,-3749.0,8554.0,5866.0
-6388.0,-5352.0,2320.0,-2731.0,4191.0,132.0
-6024.0,-6692.0,3828.0,-3860.0,-1015.0,-4480.0
-5296.0,-8984.0,6172.0,-1583.0,-9081.0,-6529.0
-2920.0,-11804.0,12924.0,643.0,-14216.0,-5288.0
-4212.0,-9692.0,12308.0,-4086.0,-18064.0,-3585.0
-1400.0,-10112.0,19944.0,963.0,-18628.0,-2587.0
-1076.0,-14172.0,27060.0,-3949.0,-7792.0,-4537.0
-1832.0,-14060.0,25440.0,156.0,756.0,-2325.0
-2576.0,-13672.0,21896.0,-191.0,9774.0,280.0
-1932.0,-12064.0,20372.0,-1444.0,15421.0,2503.0
-3572.0,-11444.0,17128.0,-543.0,15556.0,4745.0
-3512.0,-9160.0,14136.0,1212.0,17766.0,6066.0
-4120.0,-6556.0,6488.0,-3507.0,18684.0,4615.0
-6320.0,-7328.0,3556.0,-3518.0,11501.0,370.0
-6548.0,-7056.0,-924.0,-7196.0,6691.0,-3773.0
-5784.0,-10944.0,3052.0,-11461.0,798.0,-6382.0
-4268.0,-10872.0,3928.0,-3641.0,-10029.0,-5077.0
-6012.0,-13356.0,6696.0,-4182.0,-15766.0,-3968.0
-2864.0,-11032.0,7844.0,-5270.0,-21814.0,-604.0
-2152.0,-11296.0,15556.0,-2095.0,-22318.0,-2192.0
-2528.0,-14208.0,20080.0,1359.0,-22286.0,-7815.0
-2632.0,-16492.0,22640.0,-14.0,-13028.0,-4104.0
-1924.0,-16224.0,23040.0,492.0,4674.0,-1358.0
-2316.0,-15164.0,19712.0,289.0,13290.0,1654.0
-1196.0,-13884.0,19228.0,-2252.0,21638.0,3792.0
-3556.0,-13316.0,11844.0,-8320.0,25355.0,6174.0
-5008.0,-11188.0,9684.0,-5992.0,18151.0,7757.0
-5112.0,-7728.0,4328.0,-7271.0,17808.0,4509.0
-5964.0,-8484.0,2924.0,-3092.0,7912.0,644.0
-6692.0,-8996.0,-2048.0,-5560.0,5050.0,-433.0
-6144.0,-10972.0,-1528.0,-3560.0,-504.0,-4048.0
-5312.0,-13660.0,172.0,-3718.0,-7162.0,-3772.0
-5508.0,-12996.0,2504.0,-2282.0,-10456.0,-1164.0
-4992.0,-12184.0,4116.0,37.0,-21410.0,-2585.0
-2900.0,-9996.0,8388.0,4998.0,-28985.0,-4045.0
-3412.0,-13540.0,19672.0,6926.0,-28562.0,-6769.0
-1100.0,-12248.0,20784.0,8058.0,-24200.0,-9838.0
-72.0,-14876.0,24792.0,3376.0,-783.0,-5209.0
-2308.0,-15228.0,20852.0,3786.0,9253.0,-3329.0
-324.0,-14048.0,17992.0,-356.0,16427.0,2663.0
-1436.0,-13296.0,18636.0,-5079.0,27598.0,6138.0
-5180.0,-12968.0,10740.0,-6457.0,19088.0,9188.0
-4212.0,-7924.0,9480.0,-2294.0,16124.0,8653.0
-7552.0,-7824.0,2960.0,-7656.0,15330.0,6573.0
-7472.0,-5944.0,576.0,-8158.0,7765.0,430.0
-8516.0,-9036.0,-1428.0,-6967.0,2342.0,-4471.0
-5996.0,-11464.0,1676.0,-7631.0,-2077.0,-6375.0
-6240.0,-12016.0,1060.0,-3340.0,-8544.0,-8359.0
-4504.0,-13660.0,6384.0,-2077.0,-12537.0,-7896.0
-4720.0,-13364.0,6596.0,-2360.0,-18111.0,-6725.0
-3528.0,-11640.0,12284.0,9484.0,-26492.0,-10153.0
-3792.0,-14820.0,18812.0,6460.0,-20023.0,-11850.0
-2804.0,-16204.0,20508.0,6393.0,-9728.0,-7815.0
-2608.0,-17620.0,21664.0,6997.0,4781.0,-1822.0
-1836.0,-14688.0,20800.0,4297.0,14702.0,3183.0
-3772.0,-14960.0,12364.0,772.0,14192.0,6792.0
-2284.0,-11080.0,15632.0,-2715.0,25797.0,8056.0
-4468.0,-10688.0,5396.0,-6719.0,18422.0,7176.0
-3956.0,-6156.0,6024.0,-1274.0,14693.0,6631.0
-7792.0,-8916.0,-1116.0,-6199.0,5032.0,-1849.0
-5832.0,-8468.0,2272.0,-647.0,1797.0,-3741.0
-6196.0,-12576.0,3740.0,-2746.0,-4319.0,-5334.0
-4784.0,-9784.0,1268.0,-3381.0,-12793.0,-5345.0
-4060.0,-13040.0,7312.0,-1023.0,-19330.0,-6900.0
-1664.0,-12088.0,14024.0,-1685.0,-22134.0,-6885.0
-2696.0,-11480.0,17352.0,5765.0,-22131.0,-5892.0
-4312.0,-16752.0,21316.0,2433.0,-11322.0,-5010.0
-4792.0,-16224.0,20292.0,124.0,1173.0,40.0
-4200.0,-15544.0,19656.0,1796.0,7288.0,3315.0
-2644.0,-12904.0,17512.0,177.0,11652.0,5583.0
-2812.0,-11732.0,16096.0,230.0,18088.0,6878.0
-4840.0,-10352.0,8912.0,-2025.0,16343.0,6487.0
-4912.0,-8472.0,9812.0,2151.0,11322.0,4968.0
-5912.0,-6756.0,4920.0,-5105.0,18300.0,50.0
-8836.0,-11140.0,5072.0,-1475.0,5451.0,-1914.0
-7024.0,-9552.0,1136.0,-4633.0,5894.0,-3720.0
-6628.0,-12212.0,1936.0,-2639.0,-2372.0,-5071.0
-5544.0,-12388.0,2940.0,-3527.0,-8111.0,-3000.0
-4680.0,-12180.0,3976.0,-4409.0,-11558.0,-2983.0
-5024.0,-12976.0,8648.0,-402.0,-18185.0,-1639.0
-4908.0,-9820.0,10888.0,1709.0,-30172.0,-171.0
-1996.0,-10536.0,19368.0,2301.0,-22651.0,-4989.0
-3016.0,-13216.0,22600.0,2792.0,-15173.0,-6119.0
-2676.0,-15248.0,25568.0,2582.0,701.0,-3549.0
-4112.0,-15620.0,18880.0,436.0,9866.0,-51.0
-2164.0,-13000.0,20232.0,119.0,17209.0,2468.0
-2684.0,-12284.0,12028.0,-5205.0,21922.0,3966.0
-3544.0,-10780.0,13320.0,1079.0,15440.0,7969.0
-3936.0,-7968.0,8012.0,-4732.0,21667.0,4134.0
-8068.0,-8784.0,4248.0,3396.0,4110.0,6003.0
-6532.0,-6332.0,504.0,-5143.0,11125.0,-1813.0
-7880.0,-10388.0,1320.0,-768.0,-1657.0,-3130.0
-5648.0,-10612.0,3472.0,-2998.0,-4775.0,-5033.0
-5308.0,-13112.0,6276.0,-3196.0,-12863.0,-4730.0
-3832.0,-10444.0,5996.0,-5110.0,-18740.0,-3871.0
-3752.0,-13308.0,14648.0,1060.0,-22214.0,-4320.0
-2916.0,-11040.0,17464.0,-1529.0,-17972.0,-5818.0
-5724.0,-13852.0,19368.0,2997.0,-17812.0,-5491.0
-3636.0,-14816.0,22000.0,-817.0,-4332.0,-1973.0
-4324.0,-16064.0,21764.0,995.0,7241.0,-327.0
-2408.0,-14664.0,20508.0,-364.0,17688.0,3157.0
-3392.0,-14596.0,17552.0,254.0,17450.0,6966.0
-2876.0,-10880.0,14708.0,-847.0,21530.0,8855.0
-7104.0,-10896.0,6864.0,-2548.0,18058.0,9798.0
-6564.0,-6632.0,6912.0,1313.0,12457.0,6084.0
-9784.0,-6980.0,-2244.0,-782.0,5724.0,1352.0
-6628.0,-6348.0,1704.0,-2220.0,3860.0,-4311.0
-6804.0,-10656.0,2056.0,-2483.0,-3808.0,-7290.0
-5668.0,-12744.0,3788.0,-3291.0,-7786.0,-6121.0
-6128.0,-13284.0,5436.0,-3606.0,-13604.0,-4030.0
-3492.0,-10036.0,7228.0,559.0,-20397.0,-974.0
-3912.0,-9104.0,15908.0,6745.0,-24163.0,-1997.0
-5156.0,-9848.0,15808.0,2232.0,-21250.0,-2120.0
-3048.0,-11932.0,23044.0,602.0,-15745.0,-2972.0
-1392.0,-12996.0,27076.0,1715.0,-1595.0,-3001.0
-3280.0,-13960.0,23196.0,1340.0,10249.0,-2120.0
-2532.0,-12620.0,20928.0,-793.0,21539.0,1201.0
-4860.0,-13176.0,16656.0,-1861.0,15904.0,5273.0
-3660.0,-7984.0,13584.0,-1440.0,17765.0,5045.0
-7572.0,-7516.0,3968.0,-7415.0,18916.0,2121.0
-8380.0,-8720.0,4940.0,-2248.0,10351.0,414.0
-7736.0,-8360.0,1116.0,-5274.0,3380.0,-641.0
-6148.0,-12288.0,5768.0,-803.0,-914.0,-4434.0
-5564.0,-10228.0,3356.0,1062.0,-8610.0,-3463.0
-4432.0,-12148.0,5984.0,-2132.0,-10515.0,-2673.0
-5868.0,-12608.0,7552.0,5253.0,-20092.0,56.0
-2624.0,-11280.0,17004.0,-2503.0,-17699.0,3683.0
-672.0,-4252.0,17436.0,10156.0,-24269.0,-4508.0
-4820.0,-11692.0,22380.0,329.0,-19443.0,-3478.0
-1272.0,-10276.0,29444.0,-1229.0,-196.0,-4131.0
-3484.0,-14152.0,25424.0,-1241.0,12682.0,-5784.0
-3312.0,-13164.0,18352.0,-5172.0,17540.0,-1051.0
-368.0,-10916.0,16528.0,-9220.0,22561.0,-559.0
-2184.0,-10000.0,10064.0,-9724.0,22746.0,338.0
-5516.0,-11264.0,7832.0,-8604.0,17494.0,1957.0
-5476.0,-9564.0,2864.0,-3114.0,7676.0,1541.0
-6480.0,-10336.0,1684.0,-2119.0,1584.0,872.0
-5448.0,-10336.0,-216.0,-761.0,-8571.0,874.0
-3924.0,-12056.0,6436.0,-757.0,-14404.0,2497.0
-2836.0,-10796.0,10520.0,2741.0,-22830.0,2784.0
-3136.0,-9864.0,15620.0,-371.0,-19108.0,-514.0
-3120.0,-8844.0,19104.0,9404.0,-22153.0,-6549.0
-4636.0,-12820.0,23840.0,-283.0,-6633.0,-2511.0
-4008.0,-12704.0,23380.0,909.0,3512.0,-1412.0
-4400.0,-13324.0,20764.0,189.0,11173.0,536.0
-2920.0,-11400.0,19432.0,-976.0,18251.0,2766.0
-3416.0,-9320.0,13656.0,-2695.0,21526.0,3196.0
-5644.0,-8776.0,7840.0,-2238.0,14264.0,3011.0
-5700.0,-7992.0,4704.0,-1171.0,10101.0,2517.0
-7176.0,-8984.0,3848.0,-2781.0,4258.0,-396.0
-6464.0,-7320.0,656.0,-670.0,-3875.0,-1928.0
-6348.0,-9932.0,5900.0,2697.0,-11726.0,-4878.0
-4184.0,-9100.0,6064.0,1237.0,-21104.0,-2803.0
-2044.0,-12380.0,18932.0,-2146.0,-19982.0,-2606.0
-1104.0,-9116.0,18916.0,-3640.0,-23760.0,-2302.0
-1532.0,-12044.0,22284.0,-2609.0,-12573.0,-4594.0
-3568.0,-16420.0,26020.0,-1424.0,714.0,-3530.0
-3172.0,-13964.0,20908.0,-875.0,10475.0,1618.0
-2560.0,-12116.0,20904.0,-1783.0,19425.0,4555.0
-3420.0,-9644.0,15520.0,-3340.0,23500.0,4182.0
-4724.0,-9036.0,11188.0,-2781.0,16345.0,3586.0
-4628.0,-8316.0,8892.0,-4040.0,18028.0,731.0
-7212.0,-9256.0,1452.0,-4749.0,8269.0,150.0
-5936.0,-9728.0,1360.0,-1961.0,2546.0,-2664.0
-5784.0,-11832.0,1788.0,325.0,-7234.0,-2921.0
-4144.0,-11656.0,4040.0,3151.0,-13010.0,-1108.0
-3288.0,-11212.0,9924.0,2949.0,-17423.0,-170.0
-1452.0,-8932.0,11500.0,4270.0,-24383.0,-67.0
-1516.0,-9096.0,19080.0,6212.0,-23505.0,302.0
-1024.0,-8816.0,25080.0,-733.0,-17183.0,-2757.0
-2280.0,-11068.0,26300.0,1783.0,-7567.0,-5356.0
-3780.0,-13576.0,25264.0,-556.0,7022.0,-1964.0
-3236.0,-12904.0,24664.0,865.0,13795.0,1171.0
-2068.0,-10572.0,18556.0,-3992.0,20028.0,4119.0
-1464.0,-8692.0,18344.0,-2281.0,22092.0,5284.0
-2916.0,-8216.0,11708.0,-3873.0,25960.0,4022.0
-7112.0,-8268.0,5252.0,-3531.0,14733.0,4689.0
-6540.0,-5904.0,3836.0,-1520.0,8426.0,554.0
-7852.0,-7348.0,968.0,-3238.0,2479.0,-3868.0
-5728.0,-8700.0,2040.0,-2602.0,-6192.0,-5032.0
-5124.0,-10044.0,2884.0,-544.0,-15836.0,-6159.0
-2968.0,-13456.0,10840.0,-1200.0,-20837.0,-1498.0
-2808.0,-11188.0,12984.0,-1277.0,-27778.0,3057.0
-2536.0,-8416.0,17528.0,15093.0,-32768.0,5512.0
176.0,-6256.0,27464.0,-1295.0,-9235.0,-1992.0
-3380.0,-9536.0,27088.0,-740.0,-3389.0,-8662.0
-4668.0,-11988.0,25276.0,-410.0,9043.0,-3085.0
-2976.0,-10932.0,23416.0,-1460.0,14560.0,607.0
-2016.0,-8404.0,20332.0,-2955.0,22514.0,1653.0
-3604.0,-8888.0,16964.0,-5206.0,20754.0,3484.0
-3688.0,-7076.0,11544.0,-5912.0,26133.0,2495.0
-6748.0,-9172.0,6132.0,-4870.0,15999.0,2197.0
-6372.0,-6788.0,2636.0,-3587.0,10986.0,2642.0
-6712.0,-8184.0,2416.0,-4420.0,3468.0,-2462.0
-5884.0,-8204.0,-124.0,2174.0,-6660.0,-5134.0
-6988.0,-11240.0,3004.0,918.0,-12388.0,-4404.0
-4108.0,-9608.0,6488.0,5368.0,-23916.0,-1284.0
-3424.0,-9992.0,13756.0,14889.0,-32768.0,1879.0
-832.0,-9712.0,24352.0,4554.0,-26326.0,5096.0
1552.0,-2736.0,28476.0,2648.0,-17565.0,1331.0
-2440.0,-6872.0,27600.0,1654.0,-3554.0,-5488.0
-3848.0,-8584.0,26140.0,-1857.0,11413.0,-2624.0
-3436.0,-7688.0,23516.0,-2576.0,18405.0,-1529.0
-3192.0,-7248.0,22120.0,-7379.0,25007.0,-479.0
-2040.0,-6172.0,15760.0,-9322.0,29994.0,-925.0
-4740.0,-8588.0,5084.0,-13574.0,22643.0,-1608.0
-5888.0,-9656.0,4292.0,-6179.0,13966.0,-59.0
-6096.0,-8924.0,268.0,-1868.0,1757.0,-1895.0
-5560.0,-9324.0,1652.0,3849.0,-3338.0,-4032.0
-5704.0,-10696.0,3444.0,4934.0,-14391.0,-3088.0
-5476.0,-10516.0,5232.0,11767.0,-25703.0,1794.0
-1216.0,-7940.0,19504.0,5660.0,-31245.0,8356.0
4248.0,-3036.0,25632.0,-4135.0,-24130.0,2159.0
-3084.0,-7336.0,25548.0,697.0,-14780.0,-4342.0
-3848.0,-9668.0,29036.0,-1.0,104.0,-3207.0
-4852.0,-10628.0,24832.0,-824.0,11723.0,-1244.0
-2668.0,-8644.0,23660.0,-1308.0,18092.0,2018.0
-2172.0,-6732.0,18968.0,-3646.0,21145.0,1506.0
-4900.0,-7372.0,15208.0,-5551.0,22605.0,3786.0
-4772.0,-5632.0,9664.0,-6359.0,22559.0,2248.0
-6228.0,-6396.0,4220.0,-8945.0,13079.0,-1762.0
-6232.0,-7352.0,1496.0,-2567.0,4996.0,-2555.0
-6432.0,-9468.0,1848.0,171.0,-2809.0,-5857.0
-6928.0,-10624.0,3588.0,7696.0,-9883.0,-5003.0
-3220.0,-9452.0,6568.0,2264.0,-15086.0,-2341.0
-3788.0,-10648.0,13192.0,18503.0,-31118.0,2480.0
-1280.0,-8788.0,21372.0,-1264.0,-25530.0,5876.0
-1560.0,-4672.0,23084.0,3322.0,-28403.0,6842.0
1072.0,-4412.0,32592.0,-4183.0,-8981.0,1062.0
-2284.0,-7696.0,27232.0,-3379.0,4675.0,-2127.0
-2124.0,-8224.0,24872.0,-6796.0,16691.0,415.0
-2164.0,-8588.0,21912.0,-17246.0,28530.0,2654.0
-3088.0,-8012.0,16708.0,-5712.0,22000.0,270.0
-5056.0,-8512.0,10180.0,-8592.0,20164.0,2526.0
-4672.0,-6240.0,6284.0,-6446.0,14619.0,-1341.0
-7596.0,-9276.0,1552.0,-4071.0,7618.0,-1848.0
-6052.0,-8428.0,768.0,-2371.0,2837.0,-3149.0
-6652.0,-11688.0,-128.0,-1159.0,-2908.0,-4362.0
-5132.0,-9404.0,2124.0,4069.0,-10295.0,-3058.0
-2900.0,-7584.0,5068.0,5920.0,-15522.0,-7770.0
-5212.0,-12932.0,13572.0,11724.0,-30486.0,-1483.0
24.0,-10156.0,25456.0,630.0,-27065.0,-21.0
-920.0,-9320.0,23748.0,-871.0,-19666.0,-2465.0
-1096.0,-13864.0,26068.0,-2031.0,-739.0,-5416.0
-1740.0,-13920.0,23776.0,-1424.0,12954.0,-220.0
-1636.0,-11976.0,21344.0,-459.0,19948.0,1501.0
-3008.0,-11396.0,17068.0,-1895.0,16260.0,3084.0
-2468.0,-9180.0,14032.0,-1142.0,18581.0,3823.0
-4512.0,-7924.0,5544.0,-7492.0,20857.0,1762.0
-4632.0,-7512.0,4184.0,-378.0,9089.0,-2131.0
-6692.0,-9360.0,-1564.0,599.0,1466.0,-6399.0
-5268.0,-11488.0,3708.0,-928.0,-4217.0,-1637.0
-3700.0,-10616.0,5144.0,9548.0,-16396.0,577.0
-2116.0,-11240.0,11380.0,2442.0,-20200.0,4541.0
1000.0,-6584.0,15344.0,5161.0,-27264.0,2395.0
556.0,-9780.0,25352.0,-2661.0,-21690.0,436.0
-140.0,-8656.0,26140.0,-3406.0,-12658.0,-1725.0
-1864.0,-10348.0,25976.0,-1011.0,-795.0,-4014.0
-2540.0,-12148.0,24484.0,-2004.0,8850.0,-2533.0
-1552.0,-10992.0,22780.0,-2670.0,15856.0,798.0
-112.0,-9124.0,19996.0,-4162.0,22775.0,892.0
-1620.0,-8952.0,14360.0,-6317.0,21695.0,575.0
-3488.0,-9096.0,9756.0,-7188.0,26601.0,-180.0
-5572.0,-9932.0,3844.0,-5782.0,11141.0,-168.0
-5644.0,-10420.0,1588.0,-1833.0,5172.0,1376.0
-6320.0,-11544.0,1324.0,-2859.0,-4884.0,1558.0
-4296.0,-9456.0,4252.0,4174.0,-14483.0,581.0
-3368.0,-10616.0,12312.0,4115.0,-19825.0,-1083.0
-1164.0,-7212.0,12380.0,6753.0,-25998.0,-1741.0
-1976.0,-9660.0,18480.0,5689.0,-21206.0,-3573.0
316.0,-9416.0,22452.0,776.0,-15553.0,-2238.0
-504.0,-9956.0,27580.0,-2600.0,-4205.0,-1694.0
-2520.0,-11676.0,25540.0,-578.0,4323.0,-2271.0
-2412.0,-11428.0,23564.0,-1654.0,12952.0,1119.0
-1312.0,-10456.0,21232.0,-3197.0,18420.0,2884.0
-1708.0,-8560.0,15092.0,-1989.0,17581.0,2897.0
-3376.0,-8200.0,11476.0,-3420.0,20660.0,2592.0
-5616.0,-8464.0,6516.0,-2625.0,13358.0,1221.0
-6012.0,-8008.0,4412.0,-440.0,3630.0,567.0
-5252.0,-7684.0,2772.0,-6151.0,1298.0,-3118.0
-4644.0,-9280.0,2728.0,-1385.0,-10269.0,-3705.0
-1904.0,-8700.0,7340.0,601.0,-18463.0,-5676.0
-2200.0,-11012.0,11736.0,4721.0,-23992.0,-1812.0
3508.0,-8532.0,23080.0,2100.0,-27897.0,-1355.0
3252.0,-10080.0,26396.0,2397.0,-28648.0,-2587.0
3020.0,-11148.0,31992.0,-827.0,1812.0,-3264.0
-3096.0,-14056.0,24744.0,329.0,8842.0,-3089.0
-1192.0,-13100.0,23688.0,-743.0,14669.0,2725.0
632.0,-9920.0,20528.0,-4677.0,23527.0,5697.0
-1140.0,-8528.0,15596.0,-3202.0,21886.0,6764.0
-3116.0,-7868.0,12068.0,-3886.0,19344.0,6212.0
-4412.0,-6480.0,6988.0,-1511.0,15156.0,5363.0
-5844.0,-4624.0,2444.0,-3862.0,5356.0,427.0
-5624.0,-5568.0,-736.0,-1079.0,-1652.0,-5690.0
-4764.0,-7776.0,1032.0,505.0,-12150.0,-8865.0
-2336.0,-10392.0,9152.0,12963.0,-28683.0,-6356.0
3072.0,-7740.0,19712.0,17389.0,-32768.0,-1636.0
5488.0,-5488.0,26836.0,-3886.0,-18706.0,1030.0
3260.0,-9488.0,28240.0,-3872.0,-13035.0,-425.0
1700.0,-10832.0,28140.0,-2535.0,-1395.0,-2062.0
164.0,-10880.0,26196.0,-5383.0,12216.0,1930.0
280.0,-9496.0,23016.0,-5964.0,20069.0,3170.0
-392.0,-9140.0,20332.0,-8750.0,23360.0,5871.0
-872.0,-7000.0,15984.0,-6671.0,24718.0,5928.0
-4324.0,-7936.0,8456.0,-8054.0,22709.0,5605.0
-4980.0,-6676.0,5968.0,-6435.0,21305.0,3369.0
-8256.0,-8416.0,-3088.0,-5677.0,3229.0,-1732.0
-5800.0,-8292.0,948.0,-4572.0,-3229.0,-2959.0
-5608.0,-10164.0,2456.0,936.0,-16306.0,-5885.0
-2372.0,-10280.0,6832.0,3485.0,-22675.0,-4606.0
-1580.0,-10104.0,13608.0,9967.0,-31190.0,-3566.0
3672.0,-8908.0,24120.0,2568.0,-27136.0,-1460.0
2792.0,-10756.0,29268.0,2145.0,-16323.0,-4325.0
8.0,-12464.0,28556.0,-1130.0,5537.0,-2718.0
-1288.0,-12004.0,25168.0,-1875.0,18007.0,-438.0
-1152.0,-11012.0,22020.0,-2745.0,23506.0,1374.0
-1236.0,-8264.0,16488.0,-4570.0,22864.0,2290.0
-2928.0,-7952.0,9120.0,-7506.0,21372.0,1412.0
-4156.0,-7380.0,4748.0,-9466.0,20266.0,783.0
-6124.0,-9684.0,-388.0,-12350.0,8766.0,-2522.0
-5264.0,-10944.0,-364.0,-7801.0,664.0,-2350.0
-5660.0,-12604.0,-752.0,-1179.0,-12733.0,-2430.0
-3956.0,-13568.0,6288.0,1376.0,-19737.0,2309.0
-3264.0,-11452.0,12424.0,12067.0,-27582.0,3932.0
-916.0,-7308.0,16556.0,18959.0,-32768.0,4021.0
2236.0,-3848.0,25256.0,7748.0,-18558.0,-2381.0
-148.0,-5980.0,25752.0,8624.0,-11102.0,-6666.0
-2012.0,-9944.0,28480.0,245.0,8910.0,-4901.0
-1492.0,-8708.0,24620.0,-678.0,16269.0,-3649.0
-1308.0,-8628.0,23100.0,-3228.0,22303.0,-1487.0
-2096.0,-7212.0,16832.0,-7514.0,26680.0,468.0
-3460.0,-7740.0,11768.0,-8392.0,26214.0,983.0
-7208.0,-8540.0,2096.0,-10074.0,15138.0,2345.0
-6576.0,-6680.0,1220.0,-6072.0,5667.0,1482.0
-6784.0,-8472.0,712.0,557.0,-5539.0,-4900.0
-5064.0,-12096.0,4524.0,5933.0,-14934.0,-5948.0
-5356.0,-12776.0,8692.0,2951.0,-19759.0,1183.0
-3764.0,-8572.0,15164.0,10484.0,-27356.0,6699.0
52.0,-2664.0,18072.0,15438.0,-27825.0,6729.0
548.0,-1600.0,23632.0,5232.0,-18336.0,2168.0
-80.0,-3396.0,28672.0,-1107.0,-8513.0,-2702.0
-1532.0,-5748.0,29436.0,-1965.0,4295.0,-6633.0
-3140.0,-8432.0,26192.0,-2934.0,12689.0,-3232.0
-2124.0,-7396.0,21752.0,-6944.0,18946.0,99.0
-2736.0,-8392.0,20248.0,-8090.0,20909.0,2368.0
-3044.0,-6452.0,15372.0,-10214.0,23208.0,4857.0
-3276.0,-3132.0,7856.0,-11962.0,22509.0,435.0
-6116.0,-6616.0,5532.0,-11532.0,12516.0,-4578.0
-5780.0,-8436.0,1488.0,-6635.0,7195.0,-7528.0
-8292.0,-12676.0,440.0,-2927.0,-4090.0,-5391.0
-6556.0,-11168.0,944.0,2687.0,-13357.0,229.0
-6700.0,-10252.0,7172.0,12449.0,-25933.0,2698.0
-1696.0,-5136.0,12472.0,17730.0,-32768.0,3888.0
2176.0,-1836.0,23244.0,12644.0,-31248.0,-485.0
1788.0,-4668.0,30908.0,3948.0,-15680.0,-2321.0
2044.0,-5736.0,31788.0,-1713.0,1579.0,-5327.0
-500.0,-8080.0,27336.0,-2962.0,13246.0,-2754.0
-688.0,-7696.0,23772.0,-6396.0,20679.0,1253.0
-336.0,-6500.0,21028.0,-7325.0,26940.0,2171.0
-3212.0,-6088.0,13984.0,-8653.0,29242.0,1474.0
-5412.0,-5372.0,5912.0,-8391.0,24769.0,362.0
-7304.0,-5660.0,108.0,-8493.0,12608.0,-2543.0
-8892.0,-10456.0,632.0,-7136.0,5856.0,-5392.0
-6696.0,-9680.0,1612.0,3902.0,-10175.0,-5198.0
-6756.0,-9940.0,1420.0,9414.0,-21314.0,-2205.0
-3516.0,-8988.0,6492.0,10655.0,-29414.0,3201.0
3768.0,-4608.0,18956.0,8081.0,-32768.0,6491.0
3256.0,-4580.0,27108.0,1834.0,-29134.0,3527.0
3164.0,-5492.0,31512.0,-138.0,-12463.0,43.0
112.0,-7128.0,28776.0,-1141.0,4625.0,-2846.0
-1008.0,-7896.0,26268.0,-3223.0,17065.0,-1854.0
-420.0,-6464.0,21648.0,-9487.0,25639.0,315.0
-1528.0,-5948.0,17744.0,-9732.0,28462.0,431.0
-2084.0,-5304.0,12320.0,-7941.0,25908.0,-4225.0
-6884.0,-9764.0,4972.0,-9931.0,23004.0,-2037.0
-6864.0,-7960.0,1772.0,-8048.0,11364.0,-1326.0
-7612.0,-9824.0,20.0,-3476.0,444.0,-1506.0
-5232.0,-9076.0,1640.0,1229.0,-6698.0,-6636.0
-8748.0,-13736.0,4024.0,4944.0,-18988.0,-1143.0
-3792.0,-8844.0,7008.0,13967.0,-32380.0,3226.0
604.0,-4428.0,15136.0,19107.0,-32768.0,6720.0
4812.0,-3072.0,30936.0,-3638.0,-19540.0,695.0
-308.0,-9780.0,32767.0,-2598.0,-3342.0,-4146.0
-2664.0,-9624.0,26544.0,375.0,7707.0,-6768.0
-3972.0,-11692.0,22888.0,-5860.0,17015.0,572.0
-1724.0,-9308.0,22620.0,-4682.0,23062.0,4346.0
-1664.0,-7196.0,17064.0,-4050.0,23912.0,3809.0
-4364.0,-7260.0,9244.0,-5778.0,19290.0,3886.0
-5148.0,-6052.0,4100.0,-5290.0,13203.0,2168.0
-8408.0,-7952.0,1184.0,-2451.0,4143.0,322.0
-6988.0,-6240.0,-1236.0,-4006.0,-2938.0,-3504.0
-5440.0,-9556.0,4868.0,2990.0,-15301.0,-6035.0
-3732.0,-8288.0,8800.0,4882.0,-24011.0,-3883.0
-2452.0,-10788.0,20588.0,4207.0,-29850.0,285.0
-1300.0,-9380.0,25760.0,-810.0,-20182.0,392.0
-936.0,-6700.0,25816.0,2390.0,-12218.0,-2302.0
-1416.0,-9216.0,27932.0,273.0,1674.0,-2453.0
-900.0,-8956.0,26368.0,1540.0,13081.0,-2589.0
-1120.0,-8288.0,22948.0,-1038.0,21534.0,279.0
-1948.0,-6400.0,17004.0,-3328.0,24016.0,619.0
-4380.0,-7820.0,11916.0,-1278.0,19692.0,638.0
-6016.0,-6548.0,6312.0,-3474.0,15320.0,104.0
-7904.0,-8356.0,2852.0,-1836.0,5477.0,-1161.0
-6676.0,-7068.0,1012.0,2484.0,-8058.0,-3312.0
-5308.0,-9360.0,6476.0,1928.0,-14247.0,-3833.0
-3512.0,-9624.0,10864.0,7136.0,-23825.0,217.0
-1408.0,-9884.0,15968.0,-5393.0,-18359.0,5739.0
244.0,-6168.0,18240.0,-8865.0,-19880.0,5470.0
-1136.0,-9180.0,25104.0,-9417.0,-13935.0,2293.0
152.0,-8744.0,27432.0,-6175.0,-7373.0,-2588.0
-1192.0,-8812.0,24020.0,-4245.0,6407.0,-2496.0
-2192.0,-11744.0,24296.0,-2979.0,15510.0,-1026.0
-856.0,-9748.0,21904.0,-4564.0,23996.0,2079.0
-3024.0,-9744.0,16376.0,-6928.0,26174.0,1947.0
-5056.0,-9156.0,7536.0,-10164.0,19017.0,3619.0
-6520.0,-10188.0,6872.0,-11519.0,17918.0,6078.0
-6704.0,-9040.0,1664.0,-6228.0,8320.0,3317.0
-6660.0,-8884.0,-1092.0,-2347.0,-348.0,-37.0
-6436.0,-9428.0,-980.0,2165.0,-8354.0,-2486.0
-7856.0,-13216.0,5092.0,-432.0,-13129.0,416.0
-2832.0,-7076.0,8140.0,-11599.0,-12909.0,-2223.0
-7480.0,-13372.0,14868.0,-4105.0,-20062.0,-3319.0
-5448.0,-10620.0,19380.0,-10892.0,-8478.0,-6589.0
-9480.0,-15760.0,19264.0,-584.0,-11092.0,-10859.0
-7032.0,-16428.0,21060.0,-4922.0,4746.0,-4314.0
-6760.0,-16924.0,17012.0,8680.0,6400.0,2724.0
-5328.0,-16916.0,18524.0,7237.0,16208.0,9146.0
-3460.0,-10392.0,12568.0,17640.0,9217.0,10709.0
-4720.0,-7296.0,3668.0,18220.0,3609.0,6491.0
-5888.0,-7104.0,8696.0,4583.0,8688.0,4427.0
-6260.0,-4572.0,2128.0,-1347.0,5141.0,-4228.0
-7432.0,-8420.0,792.0,-6062.0,580.0,-8080.0
-5740.0,-9268.0,2184.0,-6104.0,-8752.0,-8626.0
-4404.0,-12012.0,6080.0,-9584.0,-13964.0,-6859.0
-3548.0,-11060.0,11284.0,3658.0,-26399.0,-2770.0
-244.0,-9172.0,19496.0,700.0,-27868.0,1223.0
2072.0,-7640.0,25616.0,639.0,-27680.0,-913.0
3084.0,-10508.0,29004.0,870.0,-9353.0,-5088.0
188.0,-12452.0,27720.0,-419.0,9992.0,-5226.0
-948.0,-12624.0,24012.0,-829.0,18183.0,-2196.0
-740.0,-10588.0,20112.0,-6630.0,25225.0,1125.0
-2164.0,-9924.0,15248.0,-8888.0,24926.0,3169.0
-3608.0,-9284.0,10240.0,-11204.0,27338.0,4829.0
-6580.0,-11312.0,5292.0,-10736.0,14601.0,7301.0
-5216.0,-8124.0,3320.0,-8451.0,11152.0,5740.0
-5364.0,-7540.0,412.0,-7712.0,4477.0,319.0
-5908.0,-8544.0,440.0,4823.0,-6246.0,-4749.0
-6012.0,-11128.0,3820.0,4248.0,-12928.0,-3519.0
-5408.0,-9784.0,8728.0,20800.0,-29442.0,1960.0
-5244.0,-10588.0,14188.0,19619.0,-30311.0,3733.0
-920.0,-4012.0,22468.0,13622.0,-29279.0,9309.0
2496.0,-1636.0,26532.0,2583.0,-21036.0,1003.0
1652.0,-3240.0,31652.0,-4316.0,1455.0,-7541.0
-1692.0,-7204.0,29308.0,-1795.0,11116.0,-5990.0
-3020.0,-9552.0,24968.0,-8032.0,22156.0,-1708.0
-2052.0,-6552.0,19024.0,-13531.0,25704.0,794.0
-3936.0,-8284.0,15672.0,-18776.0,30083.0,309.0
-5524.0,-8132.0,7752.0,-18796.0,26416.0,1011.0
-2764.0,-4888.0,4584.0,-15391.0,18596.0,-1404.0
-6828.0,-10180.0,-4592.0,-19043.0,9042.0,-8531.0
-6396.0,-10104.0,-1928.0,577.0,-5202.0,2223.0
-5516.0,-8752.0,-2108.0,4177.0,-15045.0,128.0
-7804.0,-9716.0,2148.0,16697.0,-26002.0,5374.0
520.0,-3816.0,16140.0,6002.0,-26627.0,2182.0
-5160.0,-8760.0,17056.0,9144.0,-32207.0,-8360.0
-4656.0,-12036.0,27516.0,4874.0,-19232.0,-7072.0
-2788.0,-10732.0,29772.0,-2108.0,-587.0,-2471.0
-3344.0,-10960.0,26680.0,-891.0,14826.0,-2721.0
-4232.0,-10444.0,21464.0,-4544.0,19667.0,-718.0
-3268.0,-8560.0,19036.0,-7852.0,27398.0,-802.0
-4984.0,-8240.0,8700.0,-12130.0,23073.0,-2919.0
-6496.0,-11264.0,7764.0,-8669.0,21400.0,2132.0
-7464.0,-9616.0,-248.0,-11048.0,9250.0,3689.0
-5336.0,-8344.0,-1280.0,-5151.0,3685.0,1067.0
-4696.0,-8680.0,-1568.0,1616.0,-7579.0,-2336.0
-5524.0,-10520.0,2808.0,5100.0,-15612.0,-549.0
-1628.0,-5060.0,5116.0,7241.0,-30713.0,-1679.0
-5272.0,-10732.0,15028.0,10540.0,-32768.0,-5159.0
-4560.0,-12236.0,24188.0,-7259.0,-18793.0,-1340.0
-5384.0,-13092.0,28220.0,-1497.0,-5294.0,-2691.0
-5272.0,-13116.0,25808.0,-2485.0,11779.0,-1925.0
-5568.0,-13308.0,21600.0,-508.0,15067.0,194.0
-3008.0,-10924.0,17996.0,-2164.0,24395.0,922.0
-7168.0,-12356.0,7772.0,-3105.0,19231.0,4773.0
-4960.0,-8368.0,6852.0,-4199.0,15616.0,8209.0
-7448.0,-7092.0,284.0,-4829.0,6632.0,4558.0
-6200.0,-6860.0,432.0,-1889.0,3458.0,637.0
-4636.0,-6688.0,1820.0,-328.0,-4331.0,-7964.0
-4796.0,-11508.0,-468.0,-1473.0,-11681.0,-6790.0
-4004.0,-11632.0,8304.0,-2553.0,-22648.0,-7099.0
-5228.0,-11860.0,12468.0,6375.0,-32768.0,-4111.0
24.0,-10380.0,21992.0,-3151.0,-19630.0,-7299.0
-716.0,-9164.0,19284.0,2500.0,-24519.0,-7781.0
-1196.0,-14560.0,27924.0,4347.0,-4200.0,-5549.0
-1456.0,-16076.0,24872.0,-115.0,11928.0,-1599.0
-2084.0,-15176.0,20152.0,1027.0,16884.0,2193.0
