ax,ay,az,gx,gy,gz
4360.0,-356.0,12224.0,-19436.0,32767.0,-21684.0
-2416.0,-1844.0,1184.0,-15636.0,32767.0,-20822.0
-10804.0,-8324.0,-1864.0,-5489.0,32767.0,-13511.0
-9644.0,-7376.0,-2576.0,2098.0,-2665.0,-2703.0
-11464.0,-11764.0,-1148.0,4266.0,-32768.0,9377.0
-6752.0,-8032.0,7400.0,15636.0,-32768.0,27782.0
6988.0,1996.0,12516.0,12180.0,-32768.0,31488.0
17588.0,15824.0,10784.0,14698.0,-32768.0,21016.0
32072.0,19660.0,31888.0,5328.0,-23099.0,-393.0
21712.0,11248.0,32767.0,-22191.0,30725.0,-10820.0
10032.0,2576.0,19396.0,-14554.0,32767.0,-24676.0
1124.0,-3328.0,10180.0,-10568.0,32767.0,-22848.0
-4752.0,-2356.0,-2252.0,-8876.0,32767.0,-19704.0
-12172.0,-10748.0,-1880.0,-3496.0,5372.0,-5265.0
-8256.0,-7456.0,-4092.0,6151.0,-32768.0,6531.0
-8496.0,-8684.0,6816.0,10839.0,-32768.0,15009.0
1512.0,-2888.0,11276.0,22339.0,-32768.0,29628.0
17884.0,11904.0,9500.0,13140.0,-32768.0,23868.0
20028.0,9232.0,19868.0,21213.0,-32768.0,4649.0
31840.0,17592.0,22040.0,-6743.0,1677.0,545.0
26036.0,12068.0,25300.0,-17272.0,25054.0,-7041.0
19468.0,6680.0,22292.0,-22194.0,32767.0,-12416.0
4844.0,-1004.0,10328.0,-20533.0,32767.0,-17120.0
-3368.0,-2248.0,3304.0,-10372.0,32767.0,-15889.0
-8040.0,-4820.0,-1280.0,-9213.0,27903.0,-10906.0
-12280.0,-9928.0,-1248.0,4635.0,-9491.0,-2904.0
-10824.0,-8360.0,1356.0,2468.0,-32768.0,12717.0
-6484.0,-6828.0,3660.0,23326.0,-32768.0,25632.0
13048.0,4712.0,14544.0,20937.0,-32768.0,22036.0
27540.0,15388.0,15436.0,13046.0,-32768.0,3384.0
31788.0,19428.0,14588.0,14547.0,-20423.0,-1086.0
31620.0,11412.0,24568.0,-18333.0,25508.0,-2595.0
23028.0,9144.0,19212.0,-31868.0,32767.0,-10358.0
2708.0,-3428.0,2296.0,-26514.0,32767.0,-18111.0
-4004.0,-2860.0,2712.0,-18526.0,32767.0,-12881.0
-10460.0,-4528.0,-3636.0,-565.0,25683.0,-12663.0
-15864.0,-12508.0,-2652.0,1624.0,-22849.0,6034.0
-9488.0,-5288.0,-816.0,9321.0,-32768.0,17173.0
-104.0,-4572.0,9940.0,28567.0,-32768.0,19935.0
16112.0,9084.0,11480.0,21005.0,-32768.0,11107.0
29184.0,13048.0,30280.0,4105.0,-16093.0,1416.0
32232.0,16608.0,30836.0,-20413.0,25047.0,-5025.0
15964.0,3340.0,20948.0,-18993.0,32767.0,-10940.0
7088.0,1144.0,9048.0,-14371.0,32767.0,-15634.0
-9620.0,-5484.0,-6828.0,-16718.0,32767.0,-11053.0
-11568.0,-6420.0,440.0,-5176.0,17143.0,-4158.0
-13384.0,-7024.0,-5116.0,6815.0,-20797.0,-4597.0
-10404.0,-8948.0,6288.0,13215.0,-32768.0,10000.0
-5340.0,-5072.0,8348.0,23579.0,-32768.0,25099.0
11288.0,1652.0,13196.0,23697.0,-32768.0,19734.0
30572.0,19856.0,18464.0,13511.0,-30213.0,8559.0
29052.0,7652.0,30188.0,-15020.0,3579.0,-1330.0
27308.0,15372.0,23020.0,-19277.0,32767.0,-7713.0
11004.0,-112.0,20512.0,-16485.0,32767.0,-19291.0
-2808.0,-2612.0,1296.0,-20824.0,32767.0,-9911.0
-8952.0,-3872.0,-2552.0,-7987.0,32767.0,-8211.0
-12788.0,-6944.0,-4144.0,-1806.0,10821.0,-12691.0
-12684.0,-8980.0,-3328.0,3353.0,-23818.0,-2470.0
-11628.0,-11088.0,6320.0,7479.0,-32768.0,17142.0
-7136.0,-5520.0,3288.0,22234.0,-32768.0,22563.0
13292.0,4340.0,16416.0,20246.0,-32768.0,25238.0
29620.0,17048.0,22556.0,2630.0,-26600.0,5210.0
32767.0,20916.0,32148.0,-14112.0,20027.0,-2251.0
17252.0,3984.0,30852.0,-18415.0,32767.0,-17080.0
4980.0,88.0,11900.0,-16344.0,32767.0,-18047.0
-5668.0,-3512.0,2516.0,-14746.0,32767.0,-7761.0
-9556.0,-4444.0,-1740.0,-5672.0,32767.0,-3057.0
-11300.0,-5484.0,-4608.0,-4453.0,5490.0,-7280.0
-14156.0,-8540.0,-5608.0,-1634.0,-28933.0,-1119.0
-8992.0,-9876.0,4088.0,11740.0,-32768.0,11242.0
188.0,-3516.0,8108.0,25026.0,-32768.0,19339.0
20684.0,5452.0,24564.0,25577.0,-32768.0,12661.0
32767.0,23040.0,25772.0,-1513.0,3242.0,6147.0
20760.0,9264.0,32767.0,-13015.0,25796.0,-12860.0
11292.0,2980.0,22756.0,-19051.0,32767.0,-11508.0
1952.0,-44.0,14872.0,-10957.0,32767.0,-13359.0
-2080.0,-1412.0,172.0,-10505.0,32767.0,-12786.0
-12684.0,-6856.0,-6488.0,-10239.0,27387.0,-8032.0
-12416.0,-7472.0,-6312.0,5112.0,-15684.0,-1633.0
-15204.0,-11736.0,1912.0,9137.0,-32768.0,8229.0
-8468.0,-5272.0,2612.0,18546.0,-32768.0,21982.0
5916.0,1576.0,11504.0,25364.0,-32768.0,17879.0
24244.0,16512.0,17964.0,14470.0,-32768.0,8528.0
32767.0,18632.0,32504.0,-14271.0,17026.0,2228.0
21212.0,12088.0,25940.0,-22803.0,32767.0,-13400.0
6372.0,704.0,17320.0,-17566.0,32767.0,-17490.0
-2940.0,-1488.0,1056.0,-13446.0,32767.0,-17443.0
-12748.0,-7332.0,-3264.0,-11718.0,32407.0,-4761.0
-12644.0,-6848.0,-3560.0,3818.0,-3457.0,-6228.0
-14832.0,-11276.0,-524.0,5072.0,-32768.0,2362.0
-12032.0,-11644.0,6800.0,19228.0,-32768.0,21980.0
76.0,-2864.0,3732.0,29131.0,-32768.0,28866.0
26892.0,15872.0,5880.0,26389.0,-32768.0,20868.0
32767.0,19784.0,23624.0,-7121.0,-12988.0,-2146.0
32767.0,20796.0,26628.0,-28868.0,32767.0,-7209.0
19608.0,3784.0,23920.0,-31313.0,32767.0,-13496.0
4392.0,-1516.0,4940.0,-16849.0,32767.0,-18009.0
-11912.0,-7800.0,-12772.0,-17538.0,32767.0,-3000.0
-12396.0,-7252.0,-9356.0,10041.0,588.0,-458.0
-10812.0,-5160.0,-5012.0,-2075.0,-31199.0,-3866.0
-12720.0,-11864.0,1448.0,16542.0,-32768.0,11749.0
2880.0,128.0,5844.0,21981.0,-32768.0,16626.0
24156.0,8372.0,13444.0,26988.0,-32768.0,13552.0
32767.0,24500.0,17700.0,-754.0,-16365.0,3196.0
32596.0,10116.0,32767.0,-13326.0,18991.0,-8610.0
17932.0,6812.0,23516.0,-20643.0,32767.0,-19668.0
4504.0,-572.0,9264.0,-19442.0,32767.0,-21561.0
-7896.0,-5564.0,-3020.0,-19611.0,32767.0,-11157.0
-10780.0,-6660.0,-1492.0,4143.0,19730.0,-3800.0
-10380.0,-5844.0,-7116.0,-2325.0,-13352.0,-5196.0
-14760.0,-14600.0,2104.0,10720.0,-32768.0,6379.0
-5548.0,-6424.0,6148.0,19219.0,-32768.0,26022.0
6668.0,656.0,3004.0,31400.0,-32768.0,26936.0
32767.0,16156.0,20596.0,13710.0,-32768.0,15900.0
32767.0,29684.0,22916.0,-17703.0,12905.0,534.0
22180.0,8880.0,24092.0,-21326.0,32767.0,-15288.0
10100.0,80.0,24552.0,-19175.0,32767.0,-20177.0
2144.0,-664.0,5960.0,-17197.0,32767.0,-20247.0
-10936.0,-7900.0,-7612.0,-17970.0,32767.0,-11424.0
-11292.0,-9236.0,20.0,-1640.0,16461.0,-5601.0
-11228.0,-8608.0,-4180.0,1034.0,-23249.0,-1692.0
-10496.0,-12144.0,3968.0,12725.0,-32768.0,11171.0
-1116.0,-6708.0,9600.0,26389.0,-32768.0,21880.0
17152.0,7348.0,16028.0,22506.0,-32768.0,30477.0
27444.0,17256.0,17732.0,18675.0,-32768.0,5301.0
32767.0,20868.0,24592.0,-15887.0,22287.0,4466.0
18580.0,9296.0,22516.0,-10545.0,25499.0,-18433.0
11036.0,3016.0,18612.0,-18017.0,32767.0,-20991.0
504.0,-1272.0,9240.0,-17145.0,32767.0,-23152.0
-10048.0,-5720.0,792.0,-15093.0,32767.0,-17169.0
-11960.0,-8840.0,3408.0,-7064.0,20630.0,-9174.0
-13420.0,-10652.0,-3876.0,-27.0,-14683.0,2292.0
-10892.0,-9820.0,8468.0,5329.0,-32768.0,11802.0
-9844.0,-8436.0,7156.0,17208.0,-32768.0,19246.0
4272.0,-1284.0,14132.0,31271.0,-32768.0,27434.0
17192.0,12664.0,10696.0,19418.0,-32768.0,24666.0
24000.0,11116.0,21544.0,12208.0,-18902.0,6871.0
29364.0,18724.0,22672.0,-15676.0,25561.0,-36.0
16416.0,9944.0,21140.0,-15112.0,32297.0,-18363.0
7088.0,1092.0,19712.0,-19005.0,32767.0,-16458.0
68.0,52.0,10208.0,-16475.0,32767.0,-16037.0
-6884.0,-2852.0,2796.0,-17957.0,32767.0,-13627.0
-13548.0,-7624.0,2048.0,-10859.0,23286.0,-11566.0
-13892.0,-7900.0,1140.0,-1765.0,-3623.0,-3093.0
-14208.0,-9072.0,3228.0,9045.0,-32768.0,6525.0
-11052.0,-8444.0,8020.0,21255.0,-32768.0,15954.0
-736.0,-2044.0,13812.0,31283.0,-32768.0,22536.0
17060.0,11836.0,20536.0,17824.0,-32519.0,24469.0
22836.0,20100.0,22784.0,-1004.0,-2554.0,5142.0
18060.0,12952.0,24780.0,-12457.0,27398.0,-12257.0
5932.0,6332.0,18760.0,-16903.0,32767.0,-23045.0
-3552.0,-2192.0,12760.0,-19082.0,32767.0,-18403.0
-8404.0,-4204.0,6328.0,-10563.0,32767.0,-13815.0
-11884.0,-5848.0,1552.0,-12658.0,16997.0,-6553.0
-13008.0,-6048.0,2476.0,2976.0,-7910.0,-3780.0
-13464.0,-7152.0,4532.0,941.0,-32768.0,7245.0
-7628.0,-6168.0,15116.0,24301.0,-32768.0,15831.0
9668.0,5864.0,25676.0,13846.0,-32768.0,19046.0
12660.0,9828.0,21428.0,16762.0,-32363.0,4093.0
14440.0,9732.0,23436.0,-3766.0,8577.0,4473.0
12636.0,9452.0,23144.0,-2853.0,26875.0,-6091.0
2184.0,3700.0,14092.0,-12553.0,32767.0,-8327.0
-4408.0,-460.0,13224.0,-2239.0,27813.0,-5557.0
-8684.0,876.0,3936.0,-2391.0,16712.0,-3160.0
-7924.0,-1148.0,9816.0,-2216.0,2887.0,979.0
-5448.0,3132.0,9660.0,-2744.0,-4720.0,788.0
-8708.0,-668.0,19920.0,-3033.0,-15049.0,2497.0
-6660.0,5276.0,24176.0,-1769.0,-22631.0,-675.0
-6992.0,2944.0,29308.0,-1869.0,-19443.0,-3314.0
-860.0,2020.0,26460.0,3952.0,-9714.0,-2544.0
5164.0,4064.0,21212.0,1236.0,11223.0,-441.0
232.0,344.0,11748.0,-4296.0,15082.0,-1174.0
-1848.0,-2344.0,8588.0,-870.0,6900.0,1088.0
964.0,588.0,8064.0,-2929.0,642.0,-877.0
1056.0,44.0,9868.0,-727.0,-9725.0,4192.0
1568.0,4588.0,17236.0,-2457.0,-10159.0,2982.0
-3768.0,5324.0,26104.0,-1767.0,-8845.0,4869.0
-7604.0,1880.0,32767.0,-242.0,-11402.0,-1105.0
1156.0,4264.0,32767.0,-2756.0,7143.0,-8593.0
1192.0,1644.0,24132.0,2113.0,16062.0,-3623.0
2764.0,3496.0,15072.0,4024.0,22910.0,2394.0
424.0,2752.0,9396.0,-522.0,19474.0,-489.0
-5592.0,-868.0,6340.0,-1839.0,8619.0,1064.0
-6088.0,-704.0,4656.0,-4168.0,-82.0,-3799.0
-3264.0,-1332.0,9964.0,-5117.0,-14566.0,-3918.0
-2256.0,-2100.0,14760.0,-3429.0,-22427.0,-1657.0
748.0,1004.0,20736.0,-1905.0,-10775.0,3686.0
-700.0,4868.0,25092.0,4024.0,-11576.0,9052.0
-2184.0,7692.0,32264.0,-826.0,-7182.0,3044.0
-2556.0,5520.0,32767.0,-1556.0,1491.0,-4457.0
-856.0,2436.0,25116.0,-969.0,6211.0,-7286.0
252.0,536.0,19588.0,3600.0,13527.0,721.0
-48.0,1580.0,13500.0,5213.0,14025.0,4396.0
-972.0,1472.0,10728.0,2733.0,11591.0,4396.0
-2560.0,1392.0,8756.0,-1229.0,4083.0,129.0
-1908.0,1104.0,9112.0,-3621.0,-6789.0,-4444.0
-880.0,1472.0,11812.0,-7411.0,-11127.0,-4054.0
132.0,1556.0,17068.0,-5547.0,-11729.0,-2564.0
-832.0,4044.0,21968.0,-3084.0,-12866.0,-109.0
-2360.0,4576.0,26736.0,331.0,-13312.0,-462.0
-3372.0,-236.0,32767.0,-1859.0,-2347.0,-532.0
652.0,844.0,32767.0,295.0,8990.0,-1005.0
1440.0,1044.0,25000.0,5150.0,23286.0,5952.0
1240.0,4988.0,16468.0,9643.0,28369.0,10226.0
-668.0,7856.0,5688.0,3250.0,20397.0,4135.0
-4348.0,1144.0,7732.0,-5778.0,7709.0,-10357.0
-5024.0,2204.0,4340.0,-7060.0,-11131.0,-11845.0
-6056.0,-3888.0,10788.0,-12627.0,-15425.0,-9740.0
-3400.0,-3820.0,14868.0,-2602.0,-18269.0,-2358.0
-160.0,2372.0,16744.0,-1573.0,-13701.0,3248.0
-1904.0,2516.0,21408.0,1306.0,-18650.0,3598.0
-384.0,2396.0,31056.0,1840.0,-13992.0,5252.0
56.0,4220.0,32767.0,-2172.0,3534.0,1678.0
-1536.0,2204.0,29596.0,-601.0,10644.0,-2845.0
-984.0,1460.0,22904.0,2660.0,16826.0,1477.0
1940.0,2836.0,17464.0,8123.0,20837.0,5079.0
552.0,4524.0,8020.0,5009.0,18768.0,175.0
-5208.0,676.0,5220.0,-4462.0,6751.0,-3206.0
-5188.0,440.0,4480.0,-3814.0,-12065.0,-9190.0
-3784.0,-2456.0,11956.0,-6531.0,-22307.0,-7318.0
-1112.0,284.0,16428.0,-3202.0,-23012.0,-137.0
1008.0,648.0,23012.0,31.0,-20357.0,3490.0
2896.0,2284.0,32420.0,1756.0,-14981.0,5943.0
4228.0,4760.0,32767.0,5290.0,279.0,2539.0
9184.0,7396.0,30504.0,-1764.0,20484.0,-3990.0
3592.0,3424.0,18308.0,-1018.0,32767.0,-5675.0
-1752.0,608.0,10904.0,811.0,32767.0,-1796.0
-6900.0,544.0,5496.0,760.0,26879.0,-1234.0
-10928.0,1264.0,-2576.0,-9298.0,-9111.0,-519.0
-7148.0,-1532.0,4476.0,-1938.0,-32768.0,-11224.0
1784.0,-916.0,14040.0,-403.0,-32768.0,-3930.0
4724.0,-212.0,21748.0,-2788.0,-29078.0,5838.0
7172.0,4388.0,26432.0,6301.0,-31635.0,9418.0
8860.0,5100.0,32767.0,4262.0,-5802.0,2511.0
9528.0,6516.0,31612.0,-4418.0,19386.0,-4398.0
5028.0,756.0,25048.0,-4504.0,28090.0,-5736.0
4480.0,880.0,19060.0,2227.0,32767.0,306.0
-3112.0,2036.0,5124.0,-1324.0,32767.0,645.0
-10972.0,-3120.0,4188.0,-726.0,14646.0,6303.0
-7656.0,1496.0,3480.0,141.0,-4136.0,-252.0
-7292.0,-1584.0,8140.0,-2173.0,-21681.0,-4716.0
-996.0,2304.0,11912.0,-452.0,-28659.0,-2544.0
920.0,324.0,18212.0,-3463.0,-17958.0,4413.0
568.0,2940.0,27524.0,326.0,-13156.0,7179.0
-1732.0,8300.0,30204.0,-592.0,-6367.0,3628.0
-5188.0,4064.0,31336.0,-1987.0,-776.0,-6846.0
-4060.0,1548.0,28328.0,-6261.0,3859.0,-9629.0
564.0,520.0,22628.0,2026.0,5636.0,-5754.0
3052.0,2732.0,16504.0,1201.0,12479.0,-632.0
660.0,364.0,11900.0,-41.0,14496.0,3065.0
-2772.0,-1832.0,11772.0,0.0,10903.0,3737.0
-3000.0,760.0,8344.0,-145.0,1711.0,1023.0
-1708.0,608.0,9132.0,-4899.0,-9088.0,-5045.0
-1276.0,1104.0,11728.0,-7872.0,-16831.0,-5103.0
-868.0,-1388.0,20048.0,-4848.0,-15674.0,-1357.0
12.0,2536.0,25732.0,-2721.0,-8573.0,2253.0
-5180.0,508.0,32380.0,-528.0,-6346.0,2814.0
-3712.0,1032.0,32767.0,531.0,2212.0,-1438.0
-24.0,1772.0,27656.0,1445.0,11667.0,-2003.0
920.0,2732.0,18532.0,5866.0,14015.0,1564.0
660.0,2120.0,13688.0,5500.0,11836.0,993.0
-668.0,1212.0,10440.0,1115.0,11012.0,845.0
-3072.0,-724.0,8872.0,-1972.0,4406.0,-830.0
-3512.0,-1016.0,8268.0,-3467.0,-5306.0,-4263.0
-2508.0,-2552.0,11808.0,-7420.0,-11624.0,-2741.0
-328.0,-708.0,14904.0,-6229.0,-15710.0,-2178.0
-656.0,-1600.0,21320.0,-2041.0,-13210.0,2216.0
-788.0,3804.0,27084.0,-495.0,-9547.0,7586.0
-2672.0,3508.0,32767.0,-1169.0,-5617.0,3260.0
-1152.0,1900.0,32767.0,-1154.0,5000.0,-5249.0
-44.0,-160.0,25756.0,635.0,13954.0,-3219.0
3020.0,2128.0,19076.0,7999.0,20304.0,3613.0
3088.0,3040.0,12676.0,9560.0,21361.0,4089.0
-3060.0,2636.0,5992.0,-543.0,14986.0,741.0
-6588.0,-772.0,6088.0,-7608.0,3043.0,-10126.0
-6380.0,-2088.0,7472.0,-12616.0,-11196.0,-13865.0
-5096.0,-6540.0,14088.0,-10953.0,-15264.0,-6733.0
-1032.0,-2468.0,16728.0,-2541.0,-16396.0,386.0
-1968.0,-1204.0,20748.0,2260.0,-11749.0,7530.0
-640.0,2728.0,25664.0,5222.0,-13766.0,9322.0
-1848.0,2468.0,32284.0,-668.0,-3322.0,1303.0
-4096.0,356.0,30680.0,-1996.0,2883.0,-3360.0
-3308.0,-504.0,25920.0,-163.0,8365.0,-3539.0
-204.0,1080.0,21276.0,6611.0,8822.0,1437.0
2568.0,3356.0,16340.0,7255.0,11807.0,2232.0
-788.0,468.0,12152.0,2954.0,12738.0,2959.0
-2708.0,604.0,9136.0,-2021.0,6250.0,237.0
-4364.0,-1004.0,8608.0,-3849.0,-4037.0,-2070.0
-3140.0,-1172.0,10848.0,-6627.0,-9259.0,-3903.0
-2176.0,-1660.0,14444.0,-4773.0,-11757.0,567.0
976.0,956.0,18980.0,-4950.0,-11712.0,116.0
-1412.0,1816.0,24192.0,-1668.0,-9587.0,6223.0
-4060.0,1192.0,31452.0,-898.0,-7629.0,3568.0
-3744.0,1240.0,32300.0,498.0,-492.0,-1600.0
-1092.0,1628.0,26232.0,516.0,5581.0,-5066.0
-1208.0,-116.0,22220.0,3559.0,9494.0,-740.0
316.0,908.0,19304.0,7027.0,13773.0,4377.0
2052.0,3908.0,15380.0,8328.0,13849.0,5260.0
188.0,2684.0,10968.0,2646.0,13056.0,1411.0
-3988.0,1816.0,7252.0,-3810.0,4334.0,-4352.0
-4380.0,1096.0,7228.0,-9032.0,-7036.0,-10583.0
-4956.0,-3060.0,11032.0,-10591.0,-14230.0,-8164.0
760.0,-152.0,16716.0,-5377.0,-14211.0,-1945.0
-1000.0,-1244.0,22872.0,57.0,-12664.0,6647.0
-1980.0,1596.0,29720.0,-313.0,-10960.0,6968.0
-2644.0,3628.0,32336.0,-1185.0,-3382.0,1201.0
-3080.0,1428.0,30116.0,-705.0,6689.0,-4744.0
-1316.0,236.0,24692.0,2256.0,9892.0,-3575.0
1524.0,1036.0,19640.0,6585.0,12686.0,266.0
200.0,2780.0,12904.0,5991.0,16618.0,1489.0
-3132.0,1028.0,10964.0,1521.0,9880.0,1918.0
-3556.0,1976.0,8872.0,-37.0,1890.0,-941.0
-2632.0,1160.0,8876.0,-4781.0,-4500.0,-6148.0
-2316.0,468.0,10756.0,-8739.0,-12834.0,-8063.0
-1496.0,-1416.0,16108.0,-7068.0,-15161.0,-3400.0
-948.0,-1948.0,23328.0,-1881.0,-13923.0,4934.0
-3320.0,1764.0,29956.0,730.0,-9289.0,9301.0
-3808.0,2584.0,31984.0,1840.0,-4221.0,2649.0
-1836.0,3044.0,28324.0,-77.0,4609.0,-4148.0
-1096.0,392.0,25176.0,682.0,8700.0,-3350.0
2324.0,2872.0,19128.0,6154.0,12922.0,-708.0
1388.0,3780.0,13960.0,2935.0,15360.0,-681.0
-2716.0,-200.0,11092.0,646.0,9616.0,632.0
-1928.0,2336.0,8016.0,-55.0,2855.0,-430.0
-2492.0,444.0,8020.0,-5706.0,-6099.0,-4078.0
-1816.0,-80.0,10296.0,-8074.0,-14234.0,-4818.0
-1136.0,-2148.0,17684.0,-5887.0,-16832.0,-1822.0
-1396.0,1208.0,24000.0,-3073.0,-13733.0,3977.0
-3092.0,-1284.0,32767.0,-962.0,-10799.0,4754.0
152.0,2312.0,32767.0,746.0,1505.0,1008.0
3388.0,1540.0,28944.0,4321.0,13799.0,-2038.0
3156.0,1576.0,20580.0,6504.0,20941.0,-75.0
1856.0,3060.0,12108.0,6319.0,26868.0,2500.0
-3756.0,3364.0,4212.0,-539.0,17825.0,981.0
-5424.0,3896.0,476.0,-7243.0,-2504.0,-11625.0
-3764.0,-1232.0,3732.0,-12506.0,-30484.0,-21657.0
76.0,-7920.0,14520.0,-5365.0,-29562.0,-7523.0
4724.0,-2036.0,21272.0,5872.0,-27921.0,9627.0
7944.0,-1884.0,31352.0,7007.0,-32768.0,8081.0
13072.0,1160.0,32767.0,4392.0,-1362.0,6969.0
6720.0,1500.0,31036.0,3613.0,20031.0,1662.0
7128.0,1732.0,25440.0,4883.0,32222.0,-2169.0
5152.0,3240.0,18576.0,6472.0,32767.0,-6067.0
-2156.0,3840.0,9804.0,1455.0,32767.0,-2346.0
-8416.0,1504.0,3696.0,3913.0,23400.0,1406.0
-10632.0,1412.0,-828.0,-2728.0,2517.0,-1645.0
-11040.0,-220.0,344.0,-5651.0,-29384.0,-4809.0
-10028.0,-1196.0,3920.0,-4098.0,-32768.0,-1242.0
4584.0,308.0,14376.0,8007.0,-32768.0,3842.0
19496.0,9616.0,25052.0,9472.0,-32768.0,1262.0
21504.0,8204.0,32624.0,772.0,-10508.0,772.0
16952.0,5900.0,32764.0,-7028.0,24524.0,-4279.0
12196.0,5248.0,24140.0,-13680.0,32767.0,-5155.0
1648.0,1264.0,13032.0,-9451.0,32767.0,-8868.0
-6672.0,-568.0,5184.0,-9202.0,32767.0,1721.0
-11696.0,112.0,-2780.0,-1849.0,27311.0,1454.0
-14164.0,-2324.0,-4200.0,-5079.0,-3515.0,1.0
-11936.0,-716.0,-600.0,-1080.0,-25442.0,-6466.0
-12992.0,-5412.0,7264.0,8448.0,-32768.0,1065.0
-1256.0,-892.0,15092.0,13721.0,-32768.0,10499.0
13776.0,11568.0,15700.0,15380.0,-32768.0,14188.0
21184.0,13464.0,24964.0,3409.0,-25469.0,2068.0
22792.0,10596.0,31312.0,-13929.0,14611.0,-2793.0
10124.0,5652.0,24644.0,-17361.0,32767.0,-8034.0
2444.0,48.0,18628.0,-15645.0,32767.0,-10797.0
-4480.0,-1448.0,8200.0,-15020.0,32767.0,-2444.0
-9056.0,-1236.0,-192.0,-11234.0,32767.0,-232.0
-15020.0,-3008.0,-5040.0,-11980.0,21329.0,-2952.0
-14848.0,-5972.0,2344.0,-250.0,-10487.0,-4580.0
-15456.0,-5432.0,2824.0,11989.0,-32768.0,-1980.0
-12664.0,-4208.0,6320.0,19310.0,-32768.0,5322.0
-4688.0,-1264.0,11892.0,23732.0,-32768.0,14925.0
14244.0,8492.0,13676.0,19166.0,-32768.0,22676.0
27908.0,19072.0,21448.0,-584.0,-15644.0,5157.0
21876.0,6648.0,32767.0,-18356.0,23950.0,-13054.0
3904.0,2064.0,21072.0,-19369.0,32767.0,-15105.0
-1916.0,-2020.0,14920.0,-15926.0,32767.0,-12990.0
-8300.0,-1568.0,256.0,-20308.0,32767.0,-3702.0
-17880.0,-8520.0,-612.0,-10250.0,20623.0,2755.0
-14504.0,-3504.0,-1904.0,6277.0,-14506.0,1310.0
-12432.0,-4440.0,5436.0,11154.0,-32768.0,1432.0
-9896.0,-2928.0,6388.0,22355.0,-32768.0,3989.0
1748.0,576.0,14596.0,28989.0,-32768.0,12717.0
22396.0,16348.0,17360.0,19273.0,-32768.0,16644.0
27968.0,20120.0,25108.0,-2969.0,-3196.0,-976.0
17296.0,10988.0,25096.0,-22898.0,32767.0,-6270.0
2676.0,1388.0,18024.0,-20982.0,32767.0,-10164.0
-4224.0,-632.0,10096.0,-22377.0,32767.0,-1364.0
-9316.0,-796.0,228.0,-15640.0,32767.0,-3287.0
-17384.0,-3416.0,-5052.0,-11451.0,16736.0,-2504.0
-15608.0,-6860.0,888.0,7183.0,-22589.0,-4134.0
-12552.0,-4312.0,2964.0,18844.0,-32768.0,1151.0
-4116.0,-5324.0,11224.0,31239.0,-32768.0,10757.0
18120.0,10016.0,15916.0,27470.0,-32768.0,20471.0
29772.0,21176.0,22840.0,7746.0,-17665.0,4822.0
23804.0,14548.0,27240.0,-20788.0,29592.0,-5731.0
7656.0,4940.0,20104.0,-20649.0,32767.0,-12649.0
-844.0,-124.0,14248.0,-18389.0,32767.0,-10185.0
-7000.0,-2404.0,6676.0,-10224.0,32767.0,-4870.0
-11040.0,204.0,-3284.0,-9471.0,32767.0,-2536.0
-18564.0,-5780.0,-3212.0,-3094.0,4979.0,-4554.0
-15400.0,-4484.0,-1604.0,5270.0,-32768.0,-1273.0
-12264.0,-3844.0,3028.0,13366.0,-32768.0,4610.0
-2596.0,-2564.0,9776.0,25313.0,-32768.0,7976.0
20004.0,9012.0,19576.0,21391.0,-32768.0,18397.0
26000.0,18420.0,26904.0,1020.0,-14477.0,2470.0
20188.0,9144.0,28720.0,-11681.0,17174.0,-5706.0
7312.0,5936.0,20380.0,-15930.0,32767.0,-11657.0
796.0,352.0,16384.0,-14238.0,32767.0,-11080.0
-8372.0,-1632.0,6216.0,-17288.0,32767.0,-3144.0
-12252.0,-3088.0,4480.0,-5744.0,32767.0,268.0
-16648.0,-2544.0,-1892.0,-4287.0,6660.0,-2766.0
-14996.0,-2548.0,20.0,2804.0,-23548.0,-3388.0
-12492.0,-3556.0,3640.0,7824.0,-32768.0,-1778.0
-4528.0,-2812.0,12488.0,17234.0,-32768.0,3181.0
13072.0,4188.0,21648.0,18174.0,-32768.0,12096.0
25668.0,13724.0,30084.0,3649.0,-5403.0,5029.0
18652.0,11288.0,28080.0,-5391.0,15747.0,-6098.0
6764.0,2696.0,23444.0,-7521.0,22802.0,-9388.0
104.0,2060.0,16908.0,-6767.0,32767.0,-5028.0
-5620.0,640.0,7820.0,-7588.0,32767.0,-4859.0
-13024.0,-3692.0,6956.0,-7695.0,21579.0,4208.0
-10008.0,1060.0,3004.0,1616.0,1835.0,-2428.0
-10132.0,428.0,3752.0,-2151.0,-16637.0,-6986.0
-6032.0,-1760.0,9056.0,804.0,-26818.0,-4918.0
-908.0,-1680.0,18068.0,-3053.0,-23072.0,4911.0
-1792.0,1112.0,27508.0,4316.0,-22422.0,8707.0
3696.0,4340.0,32767.0,3962.0,-15193.0,4831.0
3844.0,4480.0,32767.0,-1081.0,9007.0,-2406.0
-1332.0,1428.0,22208.0,4379.0,15248.0,-1547.0
-1928.0,2660.0,15404.0,9447.0,18098.0,3287.0
-2300.0,4756.0,8636.0,4692.0,14045.0,5599.0
-2948.0,2588.0,8056.0,-657.0,4875.0,344.0
-2956.0,1580.0,7980.0,-6193.0,-3783.0,-4848.0
-1856.0,-484.0,11940.0,-5333.0,-12353.0,-7242.0
428.0,-12.0,13616.0,-8265.0,-11325.0,-2467.0
488.0,1124.0,15648.0,-1963.0,-11620.0,547.0
-528.0,3048.0,20696.0,2771.0,-10425.0,6175.0
-1288.0,5556.0,26924.0,4977.0,-9179.0,10252.0
-2528.0,8992.0,32084.0,52.0,-1971.0,4859.0
-2972.0,6268.0,30232.0,-2554.0,394.0,-7667.0
-1232.0,4248.0,24876.0,-5894.0,4726.0,-10294.0
-360.0,4160.0,20612.0,-2230.0,10866.0,-5094.0
476.0,1600.0,18140.0,4648.0,15000.0,894.0
276.0,5976.0,8840.0,602.0,12172.0,161.0
-1912.0,-1396.0,11812.0,-771.0,2150.0,-2691.0
-520.0,2572.0,8572.0,-6421.0,154.0,-3980.0
-1776.0,-1184.0,11224.0,-5625.0,-8329.0,-7520.0
-84.0,-2140.0,13992.0,-5959.0,-10440.0,-2976.0
1424.0,244.0,17008.0,-2634.0,-9885.0,2564.0
-700.0,996.0,20460.0,6000.0,-3964.0,9996.0
-2724.0,4540.0,26464.0,9714.0,-6206.0,14653.0
-3412.0,7740.0,30596.0,2007.0,-4986.0,6970.0
-4236.0,7272.0,29800.0,-3036.0,2104.0,-2775.0
-2484.0,2788.0,26708.0,-6514.0,4285.0,-10173.0
392.0,1820.0,23128.0,-2195.0,8416.0,-4198.0
1352.0,3844.0,17564.0,3982.0,15577.0,1469.0
484.0,1592.0,16328.0,5504.0,16611.0,3917.0
-828.0,4992.0,10788.0,5137.0,11921.0,4621.0
-3716.0,3372.0,8676.0,-736.0,4484.0,-2273.0
-5020.0,2936.0,5996.0,-7119.0,-5502.0,-8160.0
-3692.0,-568.0,9916.0,-10693.0,-16635.0,-11230.0
180.0,-8.0,14420.0,-9499.0,-19157.0,-4923.0
-32.0,-2108.0,20360.0,-1109.0,-13229.0,6235.0
840.0,1308.0,25076.0,6867.0,-13612.0,13644.0
1972.0,6140.0,32168.0,2861.0,-14297.0,10495.0
1680.0,6848.0,32767.0,1211.0,2338.0,-681.0
-88.0,4544.0,26388.0,-2104.0,13065.0,-7124.0
1312.0,4164.0,22148.0,-3729.0,14992.0,-7820.0
456.0,4404.0,19204.0,-945.0,19399.0,-4013.0
-1164.0,4084.0,14340.0,1167.0,16741.0,-2665.0
-3328.0,148.0,12880.0,3535.0,13856.0,2218.0
-3080.0,3308.0,8580.0,-1110.0,6678.0,202.0
-6688.0,-1052.0,8268.0,-5428.0,-2362.0,-7078.0
-4360.0,252.0,8956.0,-7269.0,-11968.0,-8679.0
-2972.0,-3104.0,14880.0,-4234.0,-14883.0,-2964.0
620.0,976.0,18564.0,-2154.0,-9649.0,706.0
-1952.0,1252.0,20784.0,-101.0,-4419.0,6114.0
-5132.0,3892.0,24028.0,1844.0,-3672.0,8484.0
-8292.0,4408.0,28308.0,-179.0,-3942.0,4114.0
-8396.0,2936.0,29028.0,-2752.0,-1061.0,-5360.0
-3256.0,2144.0,25944.0,-3633.0,655.0,-6786.0
-144.0,2156.0,21368.0,726.0,10344.0,-3934.0
-512.0,1116.0,17332.0,4243.0,16851.0,2780.0
-980.0,2644.0,12476.0,3130.0,14534.0,1575.0
-3312.0,-212.0,10572.0,-84.0,10849.0,887.0
-3904.0,2144.0,7140.0,-3863.0,313.0,-6219.0
-7160.0,-1796.0,7232.0,-8396.0,-10460.0,-7784.0
-5212.0,-2972.0,9544.0,-4240.0,-20922.0,-4866.0
-1480.0,-2276.0,16368.0,-155.0,-19603.0,4042.0
384.0,2192.0,21616.0,6281.0,-14846.0,14092.0
388.0,3732.0,29896.0,4544.0,-19372.0,13097.0
4664.0,7888.0,32767.0,699.0,-3720.0,3744.0
2428.0,4784.0,31180.0,-334.0,8739.0,-6544.0
4368.0,2744.0,27108.0,-182.0,17232.0,-8848.0
3664.0,2384.0,20288.0,2904.0,26218.0,-3740.0
-916.0,1888.0,12352.0,2399.0,32767.0,2777.0
-5260.0,3104.0,6416.0,3477.0,29597.0,3840.0
-9252.0,2960.0,3908.0,-2425.0,14575.0,-565.0
-12720.0,128.0,3236.0,-7227.0,-5461.0,-8386.0
-11216.0,1092.0,4828.0,-8922.0,-15713.0,-8152.0
-9524.0,-2848.0,12252.0,-3649.0,-22667.0,-2545.0
-6980.0,-276.0,16388.0,95.0,-21218.0,2850.0
-212.0,2156.0,24740.0,3038.0,-27425.0,7121.0
3576.0,6884.0,25360.0,1798.0,-19100.0,3039.0
4212.0,3724.0,29880.0,1161.0,-11154.0,470.0
4196.0,6484.0,26408.0,-2417.0,7184.0,-6490.0
112.0,1852.0,23568.0,-880.0,18033.0,-4672.0
-1388.0,1556.0,17700.0,1013.0,24670.0,-3075.0
-4900.0,884.0,9620.0,55.0,17082.0,-776.0
-5564.0,860.0,5764.0,-980.0,4333.0,-2264.0
-3172.0,2928.0,3044.0,-7937.0,-7357.0,-4968.0
-2800.0,80.0,6980.0,-6566.0,-19754.0,-4966.0
-1272.0,-1148.0,17220.0,1460.0,-15063.0,6434.0
-3360.0,1676.0,30004.0,2192.0,-18018.0,16537.0
-560.0,4152.0,32767.0,139.0,-19081.0,4541.0
2936.0,6068.0,32767.0,-2170.0,6595.0,-6936.0
-732.0,1600.0,24488.0,-5355.0,14785.0,-10964.0
-12.0,1584.0,17664.0,572.0,17119.0,-3102.0
-1168.0,2180.0,13624.0,1530.0,20166.0,209.0
-2428.0,1576.0,11132.0,1214.0,10271.0,380.0
-2408.0,2400.0,9216.0,-1705.0,971.0,-295.0
-2348.0,2032.0,7224.0,-4976.0,-9392.0,-6957.0
-1044.0,384.0,10808.0,-8937.0,-13270.0,-7804.0
-1972.0,-3836.0,17692.0,-2131.0,-12526.0,1214.0
-4024.0,-544.0,23720.0,9841.0,-10565.0,13553.0
-2640.0,4032.0,27652.0,4098.0,-17833.0,10044.0
928.0,6480.0,30216.0,-859.0,-7582.0,1627.0
-956.0,2924.0,31336.0,-3575.0,7025.0,-7421.0
400.0,1372.0,26780.0,-5096.0,11121.0,-8445.0
2876.0,1120.0,21284.0,1760.0,19260.0,290.0
1148.0,3092.0,13328.0,3150.0,23573.0,3524.0
-3204.0,2180.0,8992.0,931.0,14044.0,1874.0
-3860.0,3000.0,6512.0,-710.0,1244.0,-2463.0
-3284.0,3404.0,4708.0,-7626.0,-9588.0,-8825.0
-4304.0,-1804.0,9608.0,-10993.0,-19429.0,-10149.0
28.0,-1832.0,16412.0,-717.0,-22061.0,-1767.0
1056.0,-1084.0,23636.0,8159.0,-18632.0,10717.0
4220.0,2540.0,30552.0,4952.0,-19020.0,11027.0
3720.0,5108.0,32767.0,1743.0,-4535.0,3085.0
2148.0,3840.0,30596.0,-904.0,11364.0,-4407.0
2800.0,2608.0,24380.0,-3632.0,19283.0,-6464.0
2008.0,2908.0,18740.0,382.0,21031.0,-1121.0
-516.0,2052.0,13608.0,2702.0,22856.0,2622.0
-3608.0,2776.0,9172.0,1070.0,14690.0,2408.0
-5356.0,1828.0,7336.0,-233.0,1919.0,-1483.0
-3708.0,2876.0,5496.0,-8343.0,-6695.0,-5645.0
-3416.0,-1420.0,10732.0,-7404.0,-19295.0,-8765.0
1592.0,-832.0,15632.0,-3640.0,-19299.0,-1698.0
1076.0,-1896.0,23108.0,3356.0,-17938.0,7817.0
1300.0,2172.0,28284.0,2497.0,-20326.0,9337.0
3332.0,6012.0,31864.0,2613.0,-9222.0,3564.0
1500.0,3968.0,31736.0,-1362.0,7078.0,-4909.0
1172.0,2424.0,26540.0,-3254.0,16957.0,-7903.0
2472.0,1184.0,22684.0,-1636.0,16319.0,-7297.0
2604.0,2028.0,17244.0,1957.0,23079.0,-705.0
-364.0,3272.0,9912.0,811.0,19048.0,917.0
-4380.0,-424.0,9208.0,671.0,7392.0,-1359.0
-4116.0,1924.0,5056.0,-2611.0,-3537.0,-3408.0
-4200.0,-736.0,8240.0,-8289.0,-11801.0,-6434.0
-684.0,-1276.0,13380.0,-2572.0,-21269.0,-3335.0
964.0,-1536.0,20032.0,-1618.0,-15410.0,5496.0
284.0,1524.0,23268.0,4462.0,-20273.0,12637.0
264.0,2576.0,29840.0,3902.0,-19411.0,9393.0
4152.0,6412.0,32004.0,888.0,-1863.0,1591.0
3220.0,4784.0,29020.0,-711.0,11968.0,-5129.0
2076.0,2284.0,25832.0,-3037.0,20414.0,-8708.0
1680.0,1816.0,19736.0,-1444.0,22115.0,-5019.0
188.0,2496.0,13320.0,1381.0,20564.0,-381.0
-1500.0,3016.0,8716.0,-2128.0,15075.0,-2470.0
-5712.0,-552.0,6496.0,-2519.0,4848.0,-2604.0
-5648.0,-148.0,5084.0,-6056.0,-9065.0,-7060.0
-5436.0,-3604.0,8524.0,-5465.0,-20719.0,-5206.0
1980.0,-912.0,13588.0,2915.0,-25764.0,2246.0
5460.0,-1436.0,25968.0,4609.0,-25729.0,13681.0
7184.0,3300.0,31940.0,1737.0,-18143.0,10171.0
7356.0,6204.0,32767.0,-137.0,-221.0,2320.0
2152.0,3540.0,30568.0,-384.0,15047.0,-5870.0
944.0,1468.0,26264.0,-1203.0,23140.0,-7749.0
1520.0,1436.0,21216.0,-491.0,22356.0,-7189.0
404.0,744.0,15928.0,3884.0,23038.0,1772.0
-1824.0,2064.0,7020.0,1607.0,19997.0,2017.0
-5156.0,-396.0,4436.0,-2736.0,7465.0,-521.0
-3864.0,2512.0,1148.0,-5531.0,-8932.0,-4979.0
-3488.0,-2816.0,6576.0,-5933.0,-22293.0,-6460.0
2276.0,672.0,11624.0,764.0,-32768.0,-627.0
5440.0,-364.0,27924.0,5785.0,-32768.0,11212.0
7348.0,3432.0,32767.0,3878.0,-26307.0,6880.0
8372.0,5976.0,32767.0,250.0,8568.0,-1178.0
3640.0,3000.0,27904.0,-1771.0,22387.0,-7924.0
4492.0,2112.0,21688.0,-1223.0,24183.0,-6675.0
916.0,1668.0,13600.0,597.0,26787.0,42.0
-1060.0,2260.0,7552.0,1000.0,20783.0,1719.0
-2192.0,1504.0,4764.0,-752.0,8371.0,-329.0
-2536.0,2196.0,2240.0,-5127.0,-7645.0,-3003.0
-2604.0,-1816.0,8516.0,-8853.0,-18065.0,-5097.0
252.0,504.0,15324.0,-777.0,-30628.0,686.0
1820.0,156.0,32767.0,-877.0,-26534.0,7947.0
5088.0,3456.0,32767.0,287.0,-11934.0,1796.0
3368.0,1400.0,32767.0,-110.0,8940.0,-5005.0
1620.0,292.0,25280.0,-1524.0,20080.0,-5400.0
-72.0,1496.0,16736.0,917.0,22620.0,90.0
-3544.0,2852.0,10788.0,916.0,19803.0,3087.0
-6300.0,412.0,8640.0,2026.0,5414.0,1721.0
-4848.0,1100.0,8800.0,-2032.0,-2903.0,-780.0
-3036.0,-1656.0,11508.0,-959.0,-11159.0,1662.0
3452.0,1656.0,18136.0,-88.0,-9303.0,4638.0
4048.0,4316.0,21992.0,479.0,-384.0,10227.0
800.0,5088.0,21336.0,4149.0,3122.0,8110.0
-1556.0,6520.0,18172.0,522.0,6144.0,1173.0
-4032.0,6492.0,19360.0,-6302.0,7022.0,-10641.0
-9652.0,2872.0,25236.0,-8976.0,6109.0,-13023.0
-11796.0,-1876.0,26524.0,-2331.0,3265.0,-8114.0
-6896.0,-144.0,22768.0,2015.0,12466.0,-46.0
-6628.0,2032.0,13556.0,1139.0,14330.0,2288.0
-8036.0,608.0,7500.0,999.0,9460.0,1966.0
-8080.0,2712.0,3492.0,-1405.0,-1350.0,1066.0
-9616.0,-176.0,4440.0,-4355.0,-9165.0,1124.0
-4888.0,2836.0,3512.0,-1447.0,-25109.0,-499.0
4384.0,1532.0,11996.0,2720.0,-32768.0,2734.0
13552.0,1040.0,27288.0,-6036.0,-21811.0,1734.0
11420.0,2360.0,31480.0,-5779.0,-11033.0,-3122.0
4084.0,492.0,32767.0,-2547.0,1144.0,-3533.0
-3864.0,-1724.0,32767.0,-1428.0,19558.0,-1624.0
-5356.0,676.0,26988.0,-1377.0,31448.0,-1422.0
-6992.0,1048.0,14812.0,1869.0,27536.0,3474.0
-5456.0,2080.0,9256.0,6431.0,20187.0,8461.0
-5868.0,4488.0,5096.0,1864.0,8211.0,3161.0
-7004.0,3264.0,3324.0,-3031.0,-2944.0,-808.0
-6492.0,1440.0,6568.0,-6328.0,-13336.0,-6330.0
-2216.0,2160.0,12356.0,-5221.0,-25820.0,-6882.0
-1008.0,1404.0,18372.0,-9829.0,-11843.0,-3977.0
-2216.0,-1320.0,23964.0,-3033.0,-17246.0,-3444.0
-120.0,-240.0,31292.0,-1641.0,-6825.0,684.0
-3776.0,-2084.0,31860.0,727.0,5805.0,451.0
-3544.0,-276.0,25892.0,3690.0,11936.0,1110.0
-3548.0,1188.0,18532.0,4440.0,16764.0,3221.0
-5028.0,2384.0,12120.0,4154.0,12649.0,2886.0
-5416.0,1792.0,8264.0,837.0,5974.0,1009.0
-6100.0,2052.0,4196.0,-5023.0,-390.0,-2456.0
-4340.0,-304.0,6228.0,-5987.0,-14788.0,-4810.0
424.0,2920.0,8872.0,-5759.0,-22107.0,-3753.0
1292.0,-1476.0,21376.0,-2884.0,-22695.0,3154.0
4.0,-1024.0,32767.0,-3561.0,-18357.0,5203.0
1960.0,-644.0,32767.0,1268.0,-2812.0,1753.0
1956.0,884.0,32767.0,463.0,19858.0,-5209.0
92.0,-1700.0,23412.0,2798.0,24193.0,-3147.0
3160.0,3780.0,13632.0,5627.0,32767.0,1569.0
-4124.0,2316.0,3016.0,-1481.0,23822.0,2631.0
-8304.0,-84.0,148.0,-3684.0,4881.0,-2359.0
-6184.0,1740.0,-284.0,-8455.0,-12692.0,-10655.0
-3864.0,-4024.0,7488.0,-5464.0,-30115.0,-9208.0
3304.0,-2180.0,16952.0,1144.0,-32003.0,-2735.0
5124.0,-900.0,28812.0,4782.0,-31570.0,7273.0
5656.0,160.0,32767.0,3310.0,-23471.0,6488.0
6496.0,2668.0,32767.0,2268.0,6117.0,562.0
3196.0,584.0,30004.0,2202.0,19543.0,-3112.0
4188.0,1096.0,23656.0,-706.0,29358.0,-2315.0
1848.0,2288.0,14776.0,1304.0,30497.0,3070.0
-1168.0,2696.0,8884.0,1843.0,26366.0,5673.0
-5636.0,3492.0,3496.0,-2184.0,13881.0,348.0
-8008.0,1152.0,-8.0,-4679.0,-3138.0,-6589.0
-4908.0,-504.0,3732.0,-9976.0,-16523.0,-10935.0
-348.0,-2248.0,10380.0,-2214.0,-32768.0,-6613.0
2340.0,-4232.0,21932.0,3932.0,-32768.0,2945.0
5876.0,192.0,32767.0,3597.0,-32768.0,4682.0
7576.0,1188.0,32767.0,1546.0,-5659.0,1654.0
4024.0,96.0,32240.0,2051.0,15239.0,-2512.0
5456.0,1280.0,26308.0,888.0,26263.0,-4094.0
2756.0,564.0,18196.0,2999.0,31785.0,-2738.0
-628.0,1820.0,10692.0,2513.0,30350.0,4239.0
-3832.0,3696.0,6808.0,6369.0,21237.0,1020.0
-7348.0,2044.0,2792.0,-2974.0,5378.0,-2039.0
-7224.0,2648.0,-536.0,-8770.0,-13049.0,-8609.0
-8132.0,-3852.0,5516.0,-5696.0,-29035.0,-4762.0
4536.0,160.0,16900.0,2163.0,-32768.0,7263.0
10696.0,3384.0,27472.0,-690.0,-32768.0,9243.0
11564.0,2288.0,32767.0,-1166.0,-19079.0,1804.0
8264.0,2956.0,32767.0,-1602.0,10352.0,-5373.0
4128.0,-324.0,29348.0,176.0,24217.0,-7400.0
4028.0,496.0,23020.0,-476.0,32767.0,-5970.0
-608.0,1332.0,10652.0,-12.0,32767.0,458.0
-4204.0,2400.0,5548.0,-88.0,22326.0,4383.0
-6620.0,1888.0,3196.0,-2459.0,7942.0,1305.0
-6300.0,2448.0,800.0,-6931.0,-7739.0,-6160.0
-3964.0,432.0,3984.0,-10160.0,-22314.0,-6501.0
192.0,-2656.0,15728.0,1814.0,-32768.0,1005.0
6984.0,-720.0,32767.0,1142.0,-32768.0,5346.0
7660.0,940.0,32767.0,112.0,-19145.0,752.0
5776.0,908.0,32767.0,381.0,10092.0,-3883.0
2240.0,-1700.0,29668.0,724.0,19587.0,-6755.0
3692.0,292.0,22376.0,1632.0,27500.0,-5605.0
-644.0,128.0,12600.0,2040.0,25742.0,4097.0
-2868.0,3436.0,5448.0,4264.0,17924.0,5948.0
-4680.0,2696.0,4480.0,-1188.0,6507.0,-622.0
-4500.0,2436.0,3312.0,-9509.0,-2957.0,-4211.0
-2520.0,880.0,5468.0,-9230.0,-19793.0,-10332.0
948.0,-1304.0,14936.0,-5767.0,-17395.0,-3096.0
-2464.0,-4348.0,25368.0,1464.0,-17913.0,9071.0
-16.0,1092.0,29180.0,1783.0,-28233.0,5420.0
1440.0,944.0,32767.0,3081.0,-11681.0,655.0
3000.0,1280.0,32767.0,944.0,12025.0,-4398.0
1984.0,-340.0,26576.0,1179.0,21032.0,-6051.0
3560.0,1880.0,17588.0,4262.0,21071.0,-1441.0
1020.0,2592.0,9228.0,3679.0,20503.0,2652.0
-3624.0,2660.0,3148.0,-698.0,12860.0,-237.0
-6200.0,492.0,1496.0,-3923.0,-3622.0,-4448.0
-2444.0,1464.0,4388.0,-7456.0,-17503.0,-9457.0
112.0,-576.0,7496.0,-5472.0,-26946.0,-6510.0
3200.0,-4312.0,22012.0,3258.0,-25649.0,7942.0
4644.0,-1344.0,32767.0,1583.0,-31169.0,8549.0
10212.0,2104.0,32767.0,4252.0,-9560.0,4307.0
8388.0,2796.0,32767.0,1052.0,16771.0,-5002.0
4708.0,-1996.0,27592.0,1747.0,26248.0,-5614.0
3264.0,308.0,16556.0,3714.0,32573.0,-804.0
-1412.0,1784.0,8192.0,5750.0,26019.0,7682.0
-984.0,6024.0,3516.0,3533.0,16650.0,6571.0
-4020.0,3108.0,1884.0,-7197.0,471.0,-7119.0
-2612.0,2548.0,2988.0,-11316.0,-16605.0,-13062.0
-684.0,-1772.0,11000.0,-8351.0,-24002.0,-7948.0
-180.0,-2352.0,21596.0,-736.0,-21388.0,5427.0
-468.0,-1692.0,30992.0,-1356.0,-28180.0,5113.0
5152.0,-460.0,32767.0,973.0,-12432.0,2308.0
6764.0,1412.0,32767.0,477.0,12419.0,-4864.0
1864.0,-2288.0,26664.0,1086.0,22695.0,-4523.0
3104.0,524.0,18440.0,3161.0,27472.0,-129.0
-1452.0,2564.0,7552.0,3263.0,27061.0,5407.0
-3716.0,3400.0,5100.0,2287.0,13879.0,1677.0
-5628.0,2920.0,2008.0,-4075.0,1731.0,-3044.0
-4208.0,2720.0,1412.0,-12754.0,-9433.0,-11001.0
-3008.0,-2728.0,6436.0,-9365.0,-23241.0,-9380.0
-628.0,-6024.0,21144.0,571.0,-26637.0,4389.0
2688.0,-5120.0,32767.0,1260.0,-32768.0,6301.0
9048.0,-568.0,32767.0,2384.0,-11015.0,686.0
2968.0,-1624.0,32767.0,1645.0,15175.0,-4793.0
1644.0,-3604.0,26832.0,3215.0,23001.0,-3133.0
2252.0,20.0,17740.0,6454.0,23920.0,-259.0
-1420.0,3068.0,7056.0,4153.0,25834.0,5792.0
-3980.0,3144.0,3944.0,3581.0,11776.0,2595.0
-3980.0,2244.0,3596.0,-3685.0,425.0,-2698.0
-4040.0,2232.0,2588.0,-12154.0,-11843.0,-9766.0
-444.0,-852.0,8144.0,-10755.0,-20288.0,-9355.0
-1604.0,-6396.0,22340.0,-1142.0,-21762.0,4596.0
128.0,-1136.0,32767.0,347.0,-24017.0,5117.0
3568.0,-656.0,32767.0,1596.0,-7037.0,1326.0
2588.0,216.0,32767.0,1440.0,13690.0,-5367.0
-1040.0,-2676.0,22956.0,2168.0,17385.0,-5623.0
-972.0,-720.0,13724.0,9178.0,18075.0,3326.0
-1228.0,2936.0,6692.0,5751.0,18384.0,7416.0
-1936.0,3620.0,4156.0,887.0,4594.0,-872.0
-1432.0,2916.0,3628.0,-7969.0,-6517.0,-6504.0
-1020.0,-136.0,7472.0,-10900.0,-17527.0,-8572.0
-648.0,-2620.0,13192.0,-6768.0,-17038.0,-1128.0
-80.0,-2724.0,24912.0,3559.0,-22072.0,11758.0
2336.0,-532.0,32767.0,-1086.0,-25282.0,4559.0
7996.0,1100.0,32767.0,620.0,1327.0,995.0
4708.0,36.0,32452.0,1078.0,18860.0,-5959.0
3904.0,-1400.0,24556.0,2353.0,23874.0,-5545.0
2860.0,812.0,14992.0,5281.0,31966.0,2983.0
-1856.0,2752.0,4744.0,4068.0,27121.0,8480.0
-3552.0,3468.0,1936.0,1114.0,6316.0,-1185.0
-4404.0,2792.0,2732.0,-9123.0,-3514.0,-4713.0
-4848.0,-384.0,4600.0,-11879.0,-17688.0,-10214.0
2012.0,296.0,10204.0,-11660.0,-18929.0,-6551.0
2724.0,-3852.0,22568.0,75.0,-26876.0,5691.0
2776.0,-3540.0,32767.0,-781.0,-32768.0,3897.0
5684.0,-872.0,32767.0,388.0,-4779.0,1139.0
3636.0,-2268.0,32767.0,2265.0,13115.0,-1785.0
3776.0,-1704.0,27456.0,2917.0,22476.0,-3816.0
4004.0,72.0,19768.0,5176.0,27967.0,-1475.0
-300.0,2748.0,7240.0,333.0,29733.0,6778.0
-3036.0,3664.0,3580.0,-2040.0,14380.0,-105.0
-5088.0,2164.0,2908.0,-4790.0,563.0,-2369.0
-5016.0,1688.0,2612.0,-8709.0,-12188.0,-8253.0
-1744.0,-1476.0,8324.0,-7039.0,-19002.0,-5388.0
-1012.0,-6116.0,22828.0,-534.0,-28868.0,2696.0
2340.0,-2452.0,32767.0,2300.0,-30497.0,3761.0
5256.0,-1592.0,32767.0,2341.0,-11551.0,-383.0
3932.0,-1576.0,32767.0,1163.0,12939.0,-3774.0
764.0,-2568.0,25648.0,2286.0,22389.0,-3735.0
1156.0,-568.0,17764.0,1767.0,24554.0,219.0
-352.0,1396.0,10660.0,3779.0,23634.0,5339.0
-3880.0,3292.0,4232.0,2892.0,12470.0,3883.0
-5320.0,3136.0,2000.0,-839.0,-578.0,-3201.0
-4656.0,1304.0,3536.0,-9184.0,-10100.0,-7617.0
-560.0,-1220.0,10536.0,-6236.0,-21721.0,-5452.0
1804.0,-1968.0,22768.0,-2878.0,-21204.0,3706.0
-1196.0,-3832.0,27828.0,172.0,-31094.0,318.0
5444.0,-1568.0,32767.0,225.0,-14610.0,868.0
3624.0,-832.0,32767.0,-8.0,11110.0,-2878.0
1176.0,-2772.0,28588.0,1274.0,17929.0,-4329.0
572.0,-1244.0,19072.0,1046.0,22065.0,-1442.0
-660.0,780.0,11692.0,3538.0,20941.0,6202.0
-968.0,3176.0,7512.0,4072.0,13346.0,6217.0
-2908.0,3652.0,4268.0,-2149.0,5536.0,38.0
-4104.0,2216.0,3048.0,-8009.0,-7572.0,-7157.0
-2028.0,-952.0,9064.0,-9136.0,-18270.0,-9463.0
144.0,-2056.0,16704.0,-5844.0,-16950.0,-710.0
812.0,-3904.0,29412.0,-235.0,-31144.0,1632.0
3848.0,-3144.0,32767.0,2635.0,-19643.0,-879.0
1616.0,-2032.0,32767.0,585.0,8337.0,-1692.0
1652.0,-2224.0,28356.0,3216.0,16963.0,-3261.0
2808.0,-724.0,21672.0,3081.0,24057.0,-2097.0
856.0,1984.0,11216.0,1265.0,27377.0,3789.0
-3108.0,2612.0,4860.0,-689.0,15937.0,4023.0
-3976.0,2028.0,3640.0,-3207.0,-326.0,-4681.0
-3268.0,88.0,5848.0,-9493.0,-11244.0,-7330.0
-1132.0,-2172.0,10280.0,-7572.0,-18125.0,-3596.0
-1220.0,-3120.0,18988.0,-1798.0,-19226.0,4697.0
-1072.0,-5432.0,29824.0,-3130.0,-25306.0,4527.0
4712.0,-1864.0,32767.0,1671.0,-14878.0,2604.0
6504.0,-552.0,32767.0,2049.0,9820.0,-1835.0
652.0,-2672.0,25480.0,1581.0,22470.0,-3818.0
-32.0,-1424.0,18396.0,3055.0,22430.0,-4006.0
-1552.0,704.0,10632.0,3676.0,17101.0,129.0
-2852.0,1184.0,7800.0,777.0,11355.0,762.0
-3576.0,1736.0,4100.0,-2133.0,-262.0,-2979.0
-3872.0,-12.0,4384.0,-8465.0,-8226.0,-5219.0
-3128.0,-2860.0,10400.0,-6859.0,-17822.0,-1123.0
-956.0,-4732.0,25972.0,-839.0,-29702.0,3832.0
3868.0,-3368.0,32767.0,-2293.0,-16223.0,2842.0
6484.0,-2612.0,32767.0,3215.0,-193.0,-1755.0
2500.0,-2380.0,29368.0,2112.0,19491.0,-4642.0
-484.0,-3004.0,20248.0,3134.0,23221.0,-3362.0
-2900.0,-472.0,11860.0,4098.0,21481.0,2127.0
-3940.0,2020.0,7320.0,3457.0,16351.0,4970.0
-5040.0,3100.0,3712.0,-2252.0,6059.0,864.0
-5668.0,1944.0,844.0,-9180.0,-6788.0,-6924.0
-3408.0,-1308.0,4876.0,-8503.0,-20481.0,-8028.0
-832.0,-4424.0,20908.0,-875.0,-28506.0,3693.0
4464.0,-2080.0,32516.0,829.0,-32573.0,5245.0
11336.0,876.0,32767.0,3569.0,-11804.0,152.0
4852.0,-1344.0,31976.0,-342.0,15621.0,-5998.0
2104.0,-2108.0,23460.0,813.0,25233.0,-4930.0
-1508.0,-1884.0,14756.0,1230.0,25117.0,-966.0
-4500.0,1212.0,5576.0,835.0,19697.0,5925.0
-4344.0,3560.0,2248.0,-1761.0,4462.0,-701.0
-3604.0,1932.0,2532.0,-7050.0,-8979.0,-2974.0
-1340.0,-780.0,8796.0,-2445.0,-24357.0,-5595.0
2252.0,-1860.0,20228.0,-4624.0,-21055.0,5502.0
5588.0,-2492.0,32767.0,-3323.0,-24540.0,3453.0
5716.0,-3476.0,32767.0,30.0,-8406.0,-298.0
2492.0,-1600.0,32767.0,1799.0,12864.0,-3979.0
104.0,-4288.0,26476.0,1628.0,24357.0,-1293.0
952.0,-580.0,17372.0,2391.0,26693.0,1397.0
-344.0,1868.0,9408.0,4129.0,21744.0,6717.0
-1556.0,3564.0,5580.0,3755.0,11392.0,4132.0
-3980.0,2444.0,2856.0,-3174.0,49.0,-2960.0
-3676.0,1420.0,4568.0,-9304.0,-11674.0,-8446.0
-968.0,-180.0,9180.0,-6474.0,-18930.0,-4451.0
-3056.0,-4828.0,20196.0,-3629.0,-22680.0,5054.0
1940.0,-1400.0,32767.0,-3999.0,-23682.0,4658.0
4188.0,-2140.0,32767.0,1025.0,-4290.0,-897.0
252.0,-3284.0,32767.0,2350.0,16382.0,-6275.0
-240.0,-5008.0,24892.0,3303.0,23297.0,-1957.0
1252.0,-292.0,14628.0,6305.0,25419.0,3923.0
-1720.0,2468.0,5356.0,6471.0,22551.0,9312.0
-2900.0,4816.0,1332.0,130.0,10004.0,2167.0
-4592.0,2872.0,-88.0,-7596.0,-7834.0,-6499.0
-2380.0,816.0,4484.0,-11215.0,-20882.0,-10708.0
1484.0,-2172.0,17644.0,-4011.0,-25398.0,-1747.0
224.0,-3464.0,31856.0,-3601.0,-25678.0,4601.0
-352.0,-2504.0,32767.0,-766.0,-16086.0,604.0
1984.0,-1496.0,32767.0,2840.0,6174.0,-2822.0
304.0,-2144.0,28372.0,2328.0,21187.0,-4043.0
-792.0,-916.0,16828.0,1753.0,24395.0,-832.0
-1884.0,616.0,8700.0,2836.0,19156.0,4736.0
-1668.0,2628.0,5888.0,474.0,11917.0,2541.0
-3152.0,3696.0,1576.0,-6335.0,1850.0,-3416.0
-3580.0,1152.0,2232.0,-9193.0,-13663.0,-7382.0
-2000.0,-3888.0,12160.0,-5000.0,-20703.0,-1892.0
-800.0,-2988.0,27520.0,-3604.0,-31828.0,2655.0
2296.0,-2512.0,32767.0,-113.0,-19161.0,1701.0
1644.0,-1704.0,32767.0,4305.0,5857.0,-2994.0
-1496.0,-2660.0,27768.0,3425.0,18340.0,-4005.0
-2056.0,-2500.0,19788.0,2924.0,21550.0,-566.0
-428.0,1520.0,11076.0,6621.0,17628.0,4342.0
-1596.0,3540.0,4456.0,543.0,16449.0,4878.0
-2956.0,3736.0,1096.0,-2168.0,-259.0,-3039.0
-1836.0,2384.0,3984.0,-10168.0,-11206.0,-9704.0
-780.0,-1528.0,12800.0,-7265.0,-21056.0,-8492.0
-1700.0,-4472.0,22796.0,-2505.0,-14325.0,3081.0
-4264.0,-4072.0,29628.0,-2258.0,-24099.0,-335.0
-2840.0,-4404.0,32767.0,383.0,-7665.0,1889.0
2468.0,-1072.0,32767.0,2707.0,9408.0,401.0
52.0,-2528.0,26648.0,3578.0,19344.0,-1892.0
-664.0,-768.0,15656.0,2669.0,22991.0,1897.0
-1768.0,2256.0,7484.0,2666.0,18234.0,5227.0
-2316.0,2636.0,5212.0,-296.0,7333.0,1191.0
-1700.0,4352.0,1812.0,-6628.0,-3509.0,-4746.0
-2068.0,1000.0,4876.0,-9301.0,-15281.0,-7922.0
-224.0,-3488.0,16312.0,-3014.0,-20806.0,-2141.0
-740.0,-4024.0,29544.0,-4187.0,-27632.0,323.0
-1324.0,-4980.0,32767.0,345.0,-17750.0,210.0
1948.0,-2496.0,32767.0,3130.0,7808.0,235.0
504.0,-2768.0,27900.0,2954.0,20108.0,-1389.0
752.0,-1492.0,19636.0,3840.0,20801.0,-179.0
940.0,2076.0,11008.0,3802.0,22294.0,4842.0
-2928.0,2760.0,3740.0,496.0,14997.0,3358.0
-4188.0,2772.0,1596.0,-3330.0,1327.0,-1804.0
-4368.0,1216.0,2656.0,-10562.0,-12200.0,-7322.0
-1936.0,-1000.0,8268.0,-7306.0,-22152.0,-5597.0
1116.0,-4376.0,22888.0,-4006.0,-28437.0,1942.0
4608.0,-3804.0,32767.0,-2750.0,-24074.0,2787.0
6988.0,-2536.0,32767.0,3057.0,-1958.0,-917.0
2296.0,-3428.0,32240.0,2777.0,17616.0,-4016.0
1532.0,-2984.0,24220.0,4269.0,23035.0,-2864.0
-460.0,392.0,11544.0,3589.0,27165.0,1147.0
-4064.0,2120.0,4552.0,3027.0,17116.0,5021.0
-4348.0,2556.0,2792.0,-387.0,3449.0,-219.0
-2856.0,3044.0,1268.0,-10164.0,-6954.0,-5093.0
-1856.0,-356.0,6256.0,-6556.0,-22133.0,-7007.0
1212.0,-4160.0,21260.0,1038.0,-31456.0,2969.0
3652.0,-2288.0,32767.0,-2746.0,-28226.0,2411.0
5544.0,-2620.0,32767.0,-1556.0,-11286.0,2483.0
5980.0,-1220.0,32767.0,3284.0,10134.0,-2947.0
2776.0,-2460.0,27296.0,1019.0,24477.0,-3611.0
1480.0,-1292.0,18324.0,797.0,29614.0,-1357.0
-204.0,1876.0,9372.0,275.0,27732.0,4577.0
-3536.0,2352.0,5420.0,-1689.0,16954.0,3847.0
-4064.0,2512.0,3444.0,-3749.0,5917.0,618.0
-3756.0,3040.0,2732.0,-10195.0,-4629.0,-8282.0
-3544.0,-1848.0,8420.0,-8593.0,-16238.0,-7531.0
-2480.0,-5212.0,20240.0,-5722.0,-22180.0,-1838.0
-4356.0,-7704.0,32644.0,380.0,-30244.0,-2795.0
-1296.0,-4204.0,32767.0,3087.0,-9029.0,1549.0
-1324.0,-4164.0,32148.0,1391.0,12902.0,42.0
-2012.0,-3400.0,24360.0,2286.0,21210.0,-285.0
-1524.0,-1444.0,16972.0,3251.0,21297.0,0.0
-4388.0,-388.0,8616.0,1462.0,17025.0,4259.0
-4256.0,2448.0,5464.0,-1376.0,9700.0,2320.0
-4508.0,2212.0,2452.0,-6115.0,-1760.0,-4775.0
-3280.0,592.0,5704.0,-6042.0,-15274.0,-7024.0
-2248.0,-4420.0,17576.0,-4925.0,-21690.0,-2391.0
-2940.0,-6156.0,29140.0,-3246.0,-28700.0,-1370.0
-1892.0,-6104.0,32240.0,1228.0,-20609.0,-165.0
96.0,-5848.0,32512.0,1747.0,3141.0,-128.0
1008.0,-3536.0,28516.0,3449.0,16706.0,739.0
232.0,-1852.0,22052.0,3108.0,19364.0,-656.0
-1936.0,-912.0,14236.0,2225.0,19544.0,1754.0
-4024.0,-344.0,10308.0,968.0,15369.0,3856.0
-4336.0,2560.0,5776.0,-2088.0,9657.0,739.0
-5352.0,2076.0,3044.0,-7876.0,923.0,-4925.0
-5140.0,-348.0,3916.0,-8942.0,-11857.0,-6881.0
-4940.0,-5156.0,15972.0,-3413.0,-25995.0,-1866.0
-1028.0,-5800.0,30904.0,-1664.0,-25075.0,1166.0
1536.0,-5244.0,32767.0,1518.0,-9763.0,627.0
132.0,-3416.0,32356.0,2238.0,10324.0,-2302.0
-4024.0,-5672.0,24964.0,3003.0,17686.0,-1796.0
-3340.0,-2716.0,17608.0,3709.0,18667.0,605.0
-3220.0,144.0,10288.0,3864.0,16654.0,2843.0
-4656.0,632.0,7096.0,3210.0,7310.0,4651.0
-3160.0,4228.0,1728.0,-2131.0,-1142.0,-1741.0
-3076.0,556.0,4264.0,-9821.0,-9274.0,-6405.0
-1996.0,-3500.0,13248.0,-4666.0,-22943.0,-4446.0
-3076.0,-4216.0,23632.0,-3674.0,-28859.0,192.0
-2536.0,-5952.0,32767.0,-674.0,-24138.0,1557.0
4760.0,-5412.0,32767.0,2663.0,-2277.0,1417.0
2728.0,-2056.0,32496.0,1500.0,22022.0,-2364.0
376.0,-3612.0,23556.0,3404.0,24672.0,-2346.0
476.0,-496.0,12728.0,3543.0,26325.0,1194.0
-3300.0,1304.0,3492.0,1181.0,20186.0,6254.0
-5140.0,1972.0,776.0,2307.0,-1471.0,-2060.0
-2980.0,2440.0,936.0,-7042.0,-9942.0,-5701.0
-1528.0,-2284.0,7284.0,-4459.0,-23352.0,-6388.0
2112.0,-4464.0,21916.0,-128.0,-29914.0,2239.0
2168.0,-2820.0,30720.0,-3847.0,-29441.0,5147.0
6912.0,-1252.0,32767.0,1582.0,-14686.0,3046.0
5588.0,692.0,32767.0,302.0,14007.0,-5217.0
-356.0,-4996.0,27208.0,238.0,25604.0,-3063.0
1728.0,-1780.0,20804.0,213.0,30931.0,953.0
-736.0,1240.0,8132.0,-237.0,28389.0,5556.0
-2272.0,3568.0,2988.0,-1311.0,15056.0,3407.0
-4136.0,1404.0,1292.0,-2616.0,-1100.0,-5638.0
-1704.0,2060.0,2636.0,-10210.0,-9968.0,-7963.0
-1844.0,-3516.0,11120.0,-3447.0,-21707.0,-4222.0
-4704.0,-6836.0,23240.0,-136.0,-32768.0,787.0
-264.0,-5940.0,32767.0,2189.0,-28859.0,4543.0
5256.0,-1288.0,32767.0,1241.0,2173.0,-411.0
476.0,-2580.0,29964.0,939.0,20889.0,-3151.0
-584.0,-3516.0,21760.0,2063.0,24736.0,-516.0
-476.0,-332.0,11864.0,1341.0,26093.0,3354.0
-3024.0,1408.0,4936.0,1836.0,16136.0,5936.0
-2684.0,4016.0,1708.0,203.0,698.0,-787.0
-3328.0,1676.0,1984.0,-9095.0,-6843.0,-6084.0
-3468.0,-3172.0,9112.0,-5301.0,-20724.0,-6371.0
-1192.0,-5264.0,21688.0,-3876.0,-26321.0,2729.0
2036.0,-4240.0,32767.0,-54.0,-29453.0,1527.0
1532.0,-1968.0,32767.0,-78.0,-4300.0,-1064.0
-2232.0,-4648.0,31740.0,1560.0,12881.0,-1143.0
944.0,-3200.0,29452.0,3414.0,22976.0,-536.0
188.0,-1592.0,18676.0,2720.0,27711.0,1270.0
-1576.0,776.0,9584.0,2330.0,24571.0,7789.0
-3464.0,3520.0,3892.0,3124.0,11746.0,2694.0
-5428.0,1664.0,2304.0,-1748.0,1901.0,-462.0
-4936.0,1700.0,1548.0,-9410.0,-11297.0,-9243.0
-1312.0,448.0,5980.0,-6125.0,-24259.0,-6884.0
-356.0,-4808.0,22936.0,-2837.0,-30222.0,-614.0
-108.0,-2984.0,30096.0,-1141.0,-32768.0,-1219.0
1396.0,-2516.0,32767.0,2944.0,-18643.0,-994.0
8068.0,-740.0,32767.0,2236.0,9885.0,-965.0
2500.0,-4024.0,29540.0,2249.0,24802.0,-5646.0
1420.0,-2548.0,19396.0,829.0,30953.0,44.0
-948.0,560.0,8884.0,2978.0,29720.0,5315.0
-3604.0,2588.0,1844.0,1079.0,18318.0,5880.0
-3572.0,3456.0,-1764.0,-3507.0,243.0,-1496.0
-2804.0,1692.0,-332.0,-13273.0,-9996.0,-8129.0
-184.0,-1596.0,8120.0,-5344.0,-27327.0,-5753.0
764.0,-4448.0,25352.0,-4490.0,-32768.0,2054.0
2888.0,-6800.0,32767.0,149.0,-32768.0,-1659.0
9720.0,-2368.0,32767.0,3164.0,-1786.0,-2741.0
1980.0,-4432.0,32767.0,1466.0,23845.0,-6507.0
444.0,-4440.0,23152.0,1632.0,28552.0,-1978.0
-220.0,-2108.0,13732.0,2197.0,30111.0,3454.0
-2196.0,1260.0,5760.0,3760.0,21927.0,10007.0
-2220.0,3436.0,3112.0,2762.0,8182.0,3896.0
-2800.0,3816.0,232.0,-7072.0,-2670.0,-4308.0
-1868.0,2448.0,1896.0,-10478.0,-15442.0,-9806.0
-88.0,-2316.0,12744.0,-6239.0,-23043.0,-4786.0
-2476.0,-5068.0,29864.0,-2449.0,-32768.0,-2114.0
-56.0,-3588.0,32767.0,1708.0,-23856.0,-740.0
-152.0,-3152.0,32767.0,1530.0,2918.0,-1148.0
-1604.0,-4288.0,30128.0,1622.0,17163.0,-1488.0
-280.0,-3936.0,24948.0,2619.0,21346.0,195.0
452.0,-692.0,17936.0,3929.0,25636.0,5414.0
-676.0,2352.0,9908.0,4420.0,22884.0,9542.0
-1744.0,4268.0,4176.0,2803.0,11386.0,5493.0
-3484.0,3992.0,-188.0,-5918.0,1374.0,-5470.0
-3628.0,1448.0,1236.0,-12178.0,-10863.0,-11265.0
-1820.0,-2876.0,10692.0,-10022.0,-19586.0,-9436.0
-2788.0,-3936.0,18892.0,819.0,-32225.0,18.0
-1196.0,-4464.0,32767.0,2713.0,-32768.0,2142.0
4028.0,-1264.0,32767.0,1152.0,-11672.0,987.0
3888.0,-804.0,32767.0,1495.0,14659.0,-3340.0
508.0,-3284.0,26696.0,1081.0,27122.0,-4206.0
-564.0,-2212.0,16608.0,1130.0,30084.0,3545.0
-1820.0,2364.0,5680.0,832.0,26406.0,7722.0
-2732.0,4112.0,1084.0,1016.0,8796.0,2082.0
-2488.0,3624.0,-2200.0,-6809.0,-6156.0,-7758.0
-2360.0,-848.0,3588.0,-8741.0,-19479.0,-12782.0
664.0,-2652.0,12620.0,-2412.0,-29997.0,-2544.0
1996.0,-5720.0,32767.0,-70.0,-32768.0,-514.0
5712.0,-5644.0,32767.0,16.0,-15079.0,1204.0
1940.0,-2340.0,32767.0,2895.0,9035.0,-3136.0
128.0,-5104.0,30496.0,3849.0,19525.0,-1578.0
1296.0,-2444.0,22896.0,1930.0,27409.0,1329.0
112.0,560.0,11632.0,2383.0,27682.0,7222.0
-1612.0,4316.0,1788.0,720.0,19505.0,6906.0
-3688.0,1660.0,2240.0,-3490.0,3431.0,-645.0
-1140.0,3600.0,1504.0,-8869.0,-9061.0,-8253.0
-1100.0,-828.0,7772.0,-6683.0,-20825.0,-8621.0
-492.0,-5228.0,20276.0,-5309.0,-26363.0,-2225.0
-1528.0,-6048.0,32767.0,-245.0,-30387.0,1079.0
2068.0,-3416.0,32767.0,2517.0,-5506.0,569.0
444.0,-2400.0,32767.0,1056.0,16490.0,-2558.0
-792.0,-4096.0,25804.0,2217.0,24036.0,-643.0
-24.0,-1372.0,17388.0,3622.0,25204.0,3598.0
-1020.0,2632.0,6640.0,3451.0,21458.0,7231.0
-2472.0,3556.0,1920.0,-392.0,8335.0,1214.0
-3348.0,2224.0,1112.0,-5543.0,-4188.0,-4055.0
-3596.0,-484.0,4192.0,-6489.0,-16283.0,-8974.0
1008.0,-1076.0,11736.0,-3807.0,-25155.0,-3293.0
1624.0,-3640.0,29556.0,-1409.0,-32307.0,570.0
664.0,-2708.0,32767.0,-145.0,-24635.0,-1384.0
1044.0,-2564.0,32767.0,287.0,3013.0,-937.0
824.0,-3068.0,31684.0,2232.0,17122.0,-2484.0
1228.0,-2880.0,23936.0,1121.0,25313.0,-391.0
132.0,-568.0,13952.0,2248.0,24947.0,4037.0
-1068.0,2420.0,6172.0,1552.0,18806.0,7328.0
-2108.0,3220.0,2348.0,-2015.0,6050.0,407.0
-1548.0,2548.0,2372.0,-8807.0,-4308.0,-5634.0
-776.0,-728.0,6588.0,-8054.0,-17439.0,-8874.0
-856.0,-3948.0,19884.0,-3838.0,-25873.0,-1113.0
-2920.0,-6368.0,32767.0,2290.0,-32768.0,1183.0
3308.0,-656.0,32767.0,2583.0,-8755.0,138.0
2192.0,-1748.0,32767.0,2459.0,14632.0,-3688.0
844.0,-3244.0,26448.0,907.0,26134.0,-1831.0
700.0,-1184.0,16060.0,2070.0,26283.0,2303.0
-544.0,1516.0,7060.0,191.0,23736.0,6891.0
-1988.0,2980.0,2600.0,-2034.0,11956.0,2554.0
-2756.0,2516.0,12.0,-7390.0,-391.0,-4868.0
-2256.0,588.0,2896.0,-10260.0,-14322.0,-9645.0
-2460.0,-4264.0,14816.0,-2275.0,-25391.0,-2346.0
-1452.0,-6852.0,31812.0,-2773.0,-30874.0,1045.0
-1144.0,-2616.0,32767.0,1360.0,-22141.0,1290.0
1128.0,-1808.0,32767.0,2147.0,6591.0,-1393.0
-796.0,-3336.0,29060.0,1273.0,22431.0,-3800.0
-212.0,-3116.0,21756.0,2574.0,25573.0,-648.0
528.0,588.0,11200.0,706.0,27811.0,3488.0
-2704.0,1000.0,3720.0,-2203.0,20394.0,5744.0
-3040.0,2896.0,2236.0,-3299.0,6905.0,-590.0
-5920.0,676.0,-44.0,-6969.0,-7357.0,-6602.0
-6112.0,-2340.0,3324.0,-7658.0,-17418.0,-4504.0
-3744.0,-4884.0,20764.0,895.0,-32768.0,467.0
6072.0,12.0,31996.0,2472.0,-32768.0,3096.0
4748.0,-1048.0,32767.0,1390.0,-22086.0,-1347.0
6228.0,-2276.0,32767.0,1086.0,7716.0,-5327.0
596.0,-3540.0,28312.0,-113.0,23343.0,-5269.0
796.0,-3684.0,22952.0,979.0,27713.0,-693.0
544.0,-752.0,15008.0,-841.0,30482.0,4336.0
-908.0,2292.0,8648.0,-81.0,28473.0,5948.0
-4032.0,2348.0,4528.0,-2017.0,20377.0,1636.0
-6136.0,3804.0,-712.0,-8841.0,10605.0,-4680.0
-11012.0,-2140.0,-2020.0,-4138.0,-18202.0,-9838.0
-7984.0,-2532.0,6080.0,-1184.0,-30452.0,-2165.0
-780.0,-6472.0,27564.0,2649.0,-32768.0,740.0
8752.0,1876.0,24324.0,-835.0,-32768.0,3081.0
14340.0,1044.0,32767.0,2962.0,-21752.0,-844.0
7368.0,-2152.0,32767.0,-1337.0,14555.0,-7651.0
668.0,-3912.0,27624.0,-598.0,25430.0,-4771.0
-1264.0,-4036.0,22780.0,-901.0,32724.0,-835.0
-2992.0,-248.0,11436.0,-1455.0,31510.0,1598.0
-4712.0,1032.0,6716.0,-2866.0,23295.0,4943.0
-5088.0,1328.0,4560.0,-248.0,7647.0,3388.0
-4040.0,3432.0,696.0,-5691.0,-2884.0,-3445.0
-3608.0,8.0,7552.0,-4653.0,-17243.0,-6615.0
-4524.0,-3256.0,15112.0,456.0,-25896.0,-1881.0
-6020.0,-3540.0,27768.0,-218.0,-25949.0,-717.0
-4632.0,-2156.0,27688.0,160.0,-20878.0,592.0
180.0,-2048.0,32767.0,990.0,-2764.0,1280.0
-32.0,-1460.0,32767.0,1891.0,14926.0,-4187.0
-1700.0,-3440.0,24492.0,1724.0,21949.0,-1828.0
-2216.0,-1100.0,12732.0,1613.0,22876.0,3154.0
-2956.0,1748.0,3960.0,1594.0,15952.0,5394.0
-3116.0,1884.0,2932.0,-737.0,1028.0,-441.0
-2396.0,1820.0,3732.0,-6294.0,-6767.0,-2590.0
-2324.0,-668.0,6260.0,-5821.0,-15235.0,-3974.0
76.0,-3208.0,16700.0,-5732.0,-21305.0,-179.0
-1332.0,-1820.0,28284.0,-2406.0,-29586.0,3770.0
-1444.0,-2004.0,32767.0,1048.0,-17709.0,2603.0
1028.0,2516.0,32767.0,1501.0,6345.0,-3031.0
-3184.0,-2172.0,26512.0,1023.0,16289.0,-7365.0
-2512.0,-3804.0,21520.0,2830.0,20306.0,-2716.0
-128.0,-128.0,15804.0,3559.0,20267.0,505.0
-1064.0,1388.0,6400.0,146.0,17702.0,2018.0
-2280.0,1516.0,1956.0,-4684.0,7691.0,204.0
-1216.0,528.0,3480.0,-3832.0,-7695.0,-3201.0
-1768.0,-2084.0,9096.0,-7121.0,-13329.0,-2854.0
-1048.0,-1240.0,14368.0,-1925.0,-32768.0,1263.0
252.0,-476.0,29360.0,3330.0,-32768.0,3694.0
9764.0,-744.0,32767.0,1038.0,-26364.0,2317.0
9580.0,2300.0,32767.0,-239.0,14101.0,-5655.0
1124.0,-136.0,24252.0,64.0,26694.0,-11116.0
-1044.0,-3264.0,18764.0,-2073.0,26391.0,-1864.0
-48.0,-136.0,14536.0,-2743.0,24000.0,1447.0
44.0,1292.0,8120.0,-3658.0,18964.0,445.0
-900.0,1380.0,3744.0,-5574.0,2565.0,327.0
452.0,-120.0,5128.0,-3054.0,-15673.0,1007.0
2860.0,464.0,12092.0,-7258.0,-32768.0,1638.0
8772.0,-840.0,31296.0,6.0,-32768.0,532.0
9504.0,-632.0,32767.0,-2805.0,-6353.0,-4612.0
1244.0,-5824.0,32767.0,1458.0,16708.0,-6034.0
2180.0,-2228.0,30160.0,2544.0,32767.0,-2976.0
3244.0,-664.0,21384.0,3038.0,32767.0,-1390.0
-656.0,2520.0,6732.0,7.0,31701.0,4463.0
-4676.0,1908.0,-468.0,1571.0,16982.0,1787.0
-4144.0,3056.0,-1444.0,-6496.0,9135.0,-353.0
-7000.0,1732.0,-4956.0,-3233.0,-12260.0,-8458.0
-7808.0,-4276.0,3492.0,-4134.0,-32768.0,-4830.0
5200.0,-5612.0,28096.0,4960.0,-32768.0,1889.0
11052.0,2528.0,32767.0,-1436.0,-21111.0,8962.0
6668.0,-1372.0,32767.0,-1429.0,3976.0,-3645.0
3864.0,504.0,28512.0,-1996.0,21516.0,-5955.0
1044.0,-1160.0,23280.0,-932.0,30762.0,-7567.0
-2160.0,-92.0,12696.0,-5248.0,32767.0,216.0
-8016.0,-2612.0,7712.0,1354.0,24133.0,3507.0
-9480.0,-1424.0,5220.0,2459.0,7148.0,8758.0
-7744.0,2588.0,52.0,3332.0,-6776.0,3493.0
-5764.0,776.0,2428.0,2132.0,-16792.0,-661.0
-3656.0,2956.0,7356.0,-6012.0,-27284.0,-3215.0
-2744.0,-2856.0,24944.0,-3433.0,-24483.0,4760.0
1452.0,-1616.0,32767.0,-5746.0,-5710.0,3218.0
-520.0,1500.0,32767.0,1800.0,3635.0,-957.0
-3488.0,864.0,24092.0,2323.0,17603.0,-3485.0
-7620.0,308.0,15076.0,-1733.0,22835.0,4496.0
-6108.0,2456.0,14160.0,4283.0,15942.0,1821.0
-5756.0,1076.0,9104.0,-1027.0,9656.0,5487.0
-6220.0,1056.0,5748.0,-1095.0,4244.0,-5359.0
-4012.0,416.0,4300.0,-5546.0,-2666.0,-6885.0
-4036.0,-644.0,3584.0,-5257.0,-22433.0,-12889.0
-4748.0,-6348.0,13644.0,-11482.0,-27390.0,-13902.0
-2176.0,-3388.0,19452.0,5002.0,-32768.0,-2964.0
3716.0,-5200.0,32767.0,-5780.0,-16471.0,1474.0
5172.0,-2564.0,32767.0,593.0,1695.0,7250.0
4256.0,-1412.0,31056.0,8066.0,23603.0,47.0
1008.0,-1756.0,20444.0,4588.0,32767.0,6984.0
-4084.0,960.0,11528.0,10266.0,32143.0,3985.0
-8116.0,-980.0,8656.0,5875.0,17650.0,5934.0
-4536.0,3940.0,2860.0,2601.0,7025.0,-2971.0
-7840.0,448.0,340.0,-7096.0,-8473.0,-11151.0
-6988.0,-5640.0,6612.0,-3377.0,-29645.0,-10248.0
-2440.0,-5852.0,14204.0,-8645.0,-26545.0,-2288.0
296.0,-3184.0,19732.0,-636.0,-30315.0,8513.0
9548.0,3096.0,30620.0,-1267.0,-28672.0,5162.0
7832.0,4480.0,32700.0,-4669.0,-9324.0,6411.0
5456.0,752.0,32767.0,-579.0,5851.0,-5589.0
4584.0,860.0,25252.0,-1046.0,22884.0,-5789.0
2420.0,-2592.0,21424.0,2988.0,32586.0,-5077.0
-1712.0,-2648.0,16048.0,-707.0,32767.0,5407.0
-5032.0,2068.0,4204.0,2123.0,27879.0,809.0
-9936.0,-2836.0,4680.0,-1015.0,12768.0,2604.0
-8492.0,2492.0,-5096.0,-4238.0,-8172.0,-4917.0
-6136.0,-1916.0,1232.0,-13353.0,-23795.0,-11918.0
-2424.0,-3192.0,6580.0,-3370.0,-32768.0,-9147.0
1540.0,-8808.0,28976.0,-2347.0,-31681.0,2114.0
10192.0,-1196.0,32767.0,-2999.0,-21479.0,-3601.0
7424.0,-2308.0,32767.0,1224.0,-1114.0,3768.0
6564.0,-4328.0,32767.0,6512.0,20000.0,-3618.0
3096.0,-2892.0,17636.0,3794.0,32767.0,921.0
-2388.0,-636.0,10412.0,3870.0,32767.0,4678.0
-7244.0,136.0,432.0,3628.0,13575.0,3657.0
-6392.0,536.0,2512.0,1620.0,3446.0,2918.0
-6456.0,476.0,-448.0,-4006.0,-11023.0,-4401.0
-6584.0,-3408.0,3108.0,-2717.0,-29894.0,-5070.0
1640.0,-2668.0,18284.0,-4091.0,-28215.0,6201.0
2348.0,-1408.0,32767.0,-985.0,-26139.0,9139.0
3064.0,1820.0,32767.0,-1305.0,-11938.0,3349.0
948.0,-120.0,32767.0,1300.0,4642.0,-1916.0
2404.0,-472.0,30436.0,4997.0,13966.0,-6244.0
2580.0,1036.0,20616.0,1507.0,27194.0,-6683.0
-420.0,404.0,9612.0,-599.0,31645.0,-4956.0
-8256.0,-4348.0,2232.0,-4197.0,17388.0,-301.0
-5996.0,-552.0,3496.0,-525.0,2295.0,948.0
-6200.0,448.0,2516.0,-1453.0,-15103.0,-5445.0
-4644.0,280.0,3584.0,-3257.0,-32768.0,-3671.0
7536.0,-4352.0,21784.0,-1143.0,-32768.0,-4263.0
9296.0,1184.0,29380.0,-4454.0,-28935.0,3956.0
7640.0,-6576.0,32767.0,1634.0,-8488.0,1634.0
10556.0,160.0,32767.0,-1983.0,17508.0,921.0
6400.0,-2072.0,25468.0,4238.0,32767.0,-4263.0
-1008.0,-4388.0,16372.0,-1342.0,32767.0,2414.0
-2500.0,668.0,9724.0,5689.0,27356.0,6045.0
-5108.0,2276.0,3808.0,-868.0,16811.0,4502.0
-7456.0,1728.0,40.0,-5296.0,2217.0,-1189.0
-6660.0,-1136.0,-140.0,-5128.0,-15708.0,-5021.0
-2596.0,-948.0,7388.0,-4272.0,-32768.0,-630.0
1432.0,-4588.0,28244.0,1275.0,-32768.0,1524.0
8992.0,-1728.0,32767.0,-7995.0,-25754.0,430.0
6960.0,-1400.0,32767.0,-1921.0,-1579.0,-2663.0
6736.0,-5820.0,32767.0,4681.0,21779.0,-3635.0
6084.0,688.0,18908.0,1652.0,32767.0,-6121.0
-900.0,-3460.0,9864.0,2294.0,32767.0,-360.0
-4656.0,-248.0,3804.0,604.0,30031.0,-824.0
-9440.0,-2200.0,580.0,258.0,16244.0,1066.0
-7732.0,1464.0,-1236.0,-3792.0,-11204.0,-3422.0
-9748.0,-3192.0,696.0,-3132.0,-32768.0,-2953.0
3604.0,-2464.0,12644.0,-2166.0,-32768.0,6638.0
10536.0,1124.0,31216.0,7068.0,-32768.0,4837.0
15668.0,128.0,32767.0,992.0,-8707.0,5001.0
12532.0,2972.0,32767.0,-1688.0,17514.0,-6597.0
5340.0,-1412.0,23820.0,-5629.0,32767.0,-7279.0
2740.0,-1300.0,17196.0,-1936.0,32767.0,-4766.0
-6236.0,-3608.0,5156.0,-6037.0,32767.0,1065.0
-8380.0,380.0,-1116.0,-3539.0,16453.0,3715.0
-8712.0,-740.0,-3080.0,-2267.0,-9688.0,-2708.0
-5840.0,-1192.0,3192.0,-3124.0,-26020.0,-5036.0
-692.0,-2324.0,15004.0,1969.0,-32768.0,990.0
9596.0,-1900.0,32767.0,-209.0,-21295.0,5981.0
6048.0,1996.0,32767.0,-995.0,1825.0,-1768.0
24.0,-3388.0,30508.0,-647.0,14184.0,-7040.0
-1376.0,-2800.0,20692.0,-26.0,21313.0,-31.0
-2908.0,-400.0,12056.0,2170.0,23615.0,1355.0
-6756.0,-96.0,4736.0,1693.0,11082.0,2847.0
-6316.0,208.0,3300.0,-1278.0,370.0,893.0
-5536.0,484.0,1800.0,-6211.0,-10232.0,-5539.0
-2812.0,-4548.0,12844.0,-1793.0,-23619.0,-2743.0
572.0,-904.0,16228.0,-2910.0,-28103.0,4162.0
4048.0,-3952.0,32767.0,-312.0,-22582.0,7541.0
7636.0,1060.0,32767.0,-1405.0,-1091.0,2314.0
1992.0,-664.0,32388.0,-936.0,15945.0,-7362.0
512.0,-5416.0,28544.0,1132.0,25109.0,-4399.0
592.0,48.0,15512.0,7036.0,26021.0,-366.0
-3572.0,392.0,4288.0,-485.0,25304.0,4064.0
-6016.0,-804.0,4728.0,434.0,9984.0,3511.0
-5404.0,856.0,444.0,-3565.0,-2836.0,-589.0
-4328.0,-1256.0,4780.0,-5601.0,-17005.0,-5211.0
1232.0,760.0,9004.0,-4420.0,-29776.0,285.0
3288.0,-2740.0,27524.0,-5429.0,-28263.0,3751.0
968.0,-372.0,32767.0,-3203.0,-21262.0,3724.0
5504.0,-200.0,32767.0,1306.0,-7017.0,-1624.0
4812.0,-3136.0,32767.0,516.0,18876.0,-7320.0
1188.0,-1692.0,20852.0,1813.0,28321.0,-4306.0
212.0,-100.0,12240.0,6082.0,23921.0,-1922.0
-3240.0,624.0,5008.0,206.0,19963.0,2374.0
-5488.0,116.0,2572.0,-6565.0,6762.0,-37.0
-4736.0,-528.0,1888.0,-4200.0,-11887.0,-7024.0
-2060.0,-3160.0,7512.0,-3347.0,-25259.0,-6495.0
3368.0,-2672.0,17204.0,-3465.0,-30016.0,5478.0
4960.0,-3012.0,31188.0,-2352.0,-27011.0,6472.0
5232.0,-2852.0,32767.0,746.0,-22916.0,4346.0
6380.0,1624.0,32767.0,4504.0,5595.0,-342.0
3644.0,644.0,29868.0,225.0,28797.0,-4873.0
892.0,-1848.0,24464.0,791.0,30766.0,-2607.0
432.0,-280.0,15328.0,590.0,31307.0,538.0
-2340.0,488.0,7300.0,-2759.0,26752.0,1441.0
-6072.0,-1828.0,4132.0,-2169.0,10645.0,494.0
-4616.0,468.0,1832.0,-509.0,-8254.0,-2567.0
-3076.0,328.0,3360.0,1550.0,-21944.0,-8014.0
-520.0,-3504.0,15112.0,-1887.0,-31118.0,-1192.0
328.0,-4028.0,28260.0,-2187.0,-25042.0,9040.0
1064.0,-820.0,32767.0,459.0,-22061.0,5807.0
2628.0,2832.0,32767.0,-342.0,3405.0,13.0
212.0,-568.0,31672.0,1607.0,18059.0,-5490.0
104.0,-604.0,22632.0,-564.0,29051.0,-3420.0
-1932.0,-624.0,13500.0,-109.0,27618.0,1304.0
-4688.0,480.0,3940.0,-2740.0,20500.0,4771.0
-5464.0,0.0,1828.0,-2275.0,3839.0,-1499.0
-4084.0,-1456.0,3676.0,-3309.0,-12445.0,-3361.0
-2580.0,-1452.0,5044.0,-2307.0,-23677.0,-6688.0
268.0,-6164.0,20352.0,-3479.0,-27381.0,4983.0
5572.0,-1876.0,32767.0,-2853.0,-26548.0,7273.0
3572.0,1740.0,32767.0,-4016.0,-11293.0,1354.0
-648.0,-1888.0,32767.0,1141.0,7312.0,-4405.0
-1660.0,-1684.0,28892.0,-81.0,23222.0,-4312.0
-1876.0,-2388.0,20084.0,1036.0,25545.0,-3707.0
-3340.0,-888.0,9300.0,590.0,19139.0,2644.0
-5336.0,-1540.0,5808.0,281.0,10735.0,3709.0
-3996.0,-628.0,2300.0,-2206.0,-815.0,3013.0
-2432.0,-1256.0,4996.0,-3705.0,-13378.0,-1250.0
1328.0,-1784.0,11264.0,-2598.0,-21417.0,828.0
4500.0,296.0,21104.0,-2458.0,-27008.0,3281.0
1984.0,124.0,32767.0,-4540.0,-19550.0,3526.0
84.0,-608.0,32767.0,672.0,-1901.0,-2811.0
-428.0,-1052.0,32767.0,3288.0,19293.0,-8461.0
276.0,-2528.0,25532.0,2123.0,31281.0,-7891.0
180.0,-952.0,14532.0,3136.0,30240.0,-1338.0
-2200.0,760.0,5196.0,820.0,22843.0,3622.0
-5908.0,-124.0,1112.0,-1850.0,10323.0,2734.0
-5584.0,1008.0,-960.0,-4306.0,-5289.0,-2387.0
-5032.0,-80.0,2492.0,-6758.0,-19606.0,-8231.0
-3516.0,-4420.0,15924.0,-3579.0,-27657.0,-1418.0
-1448.0,-3032.0,24048.0,-4589.0,-23610.0,4595.0
1300.0,540.0,29440.0,112.0,-23135.0,5310.0
1280.0,-1784.0,32767.0,1047.0,-6021.0,-955.0
-284.0,492.0,31740.0,1076.0,14159.0,-5460.0
-2224.0,-2484.0,26348.0,940.0,24169.0,-6247.0
-2760.0,-1648.0,17792.0,573.0,25061.0,-2815.0
-4232.0,256.0,8468.0,-671.0,22433.0,1536.0
-7896.0,-1948.0,4772.0,39.0,11119.0,3883.0
-5748.0,1404.0,1256.0,-1606.0,-568.0,1101.0
-4800.0,720.0,1460.0,-7243.0,-10446.0,-4686.0
-3964.0,-5092.0,10640.0,-2105.0,-24902.0,-5583.0
-1908.0,-4980.0,19960.0,410.0,-29768.0,6609.0
2348.0,1328.0,28464.0,-651.0,-26761.0,11221.0
4576.0,2624.0,32767.0,-260.0,-10386.0,3385.0
2652.0,492.0,32767.0,953.0,9898.0,-3627.0
84.0,356.0,27532.0,149.0,24910.0,-7971.0
-1936.0,-1628.0,18172.0,-771.0,28998.0,-6764.0
-5344.0,-1964.0,7800.0,-3567.0,23687.0,2923.0
-6464.0,-1204.0,4264.0,1512.0,10406.0,3318.0
-5036.0,560.0,2908.0,-919.0,-1693.0,1529.0
-4004.0,800.0,3604.0,-6441.0,-11999.0,-4724.0
-2376.0,-1892.0,7660.0,-6629.0,-23220.0,-4525.0
-576.0,-4704.0,22720.0,-2371.0,-29218.0,2982.0
1420.0,-2780.0,32767.0,-4907.0,-22087.0,6161.0
2512.0,-672.0,32767.0,2280.0,-6733.0,535.0
164.0,-988.0,32767.0,2012.0,16223.0,-6582.0
-2604.0,-4284.0,26324.0,2307.0,25504.0,-5322.0
-2116.0,-1436.0,16544.0,4629.0,24301.0,-2306.0
-4472.0,-632.0,6240.0,2163.0,20424.0,3873.0
-5664.0,1428.0,2232.0,209.0,8788.0,3300.0
-5356.0,608.0,668.0,-3858.0,-4281.0,-1490.0
-3724.0,808.0,3112.0,-5084.0,-19086.0,-7827.0
-1216.0,-4512.0,13540.0,-2994.0,-26495.0,-2523.0
2072.0,-2392.0,27220.0,-1855.0,-26599.0,6587.0
1860.0,688.0,32767.0,-1628.0,-16587.0,3241.0
148.0,-456.0,32767.0,7.0,-4533.0,-1473.0
-108.0,-2156.0,32767.0,2358.0,11791.0,-4243.0
-248.0,-1124.0,25648.0,851.0,24426.0,-4450.0
-1800.0,-1676.0,16864.0,360.0,25942.0,-1237.0
-4800.0,-736.0,7612.0,393.0,19625.0,5365.0
-5380.0,1504.0,2516.0,1413.0,6904.0,3720.0
-4480.0,1848.0,176.0,-5762.0,-4410.0,-2451.0
-3340.0,456.0,2916.0,-3829.0,-22022.0,-5918.0
172.0,-3316.0,16476.0,1072.0,-32768.0,317.0
3792.0,412.0,31804.0,-4904.0,-22173.0,6512.0
3892.0,292.0,32767.0,1007.0,-10577.0,505.0
800.0,720.0,32767.0,286.0,12335.0,-6996.0
-1632.0,-2788.0,26508.0,-1030.0,23709.0,-5401.0
-1084.0,-1396.0,20036.0,1270.0,26126.0,-2144.0
-2288.0,420.0,9912.0,2362.0,26399.0,1334.0
-6580.0,-352.0,3924.0,786.0,17936.0,3125.0
-7456.0,1288.0,352.0,-113.0,1531.0,1873.0
-5784.0,2184.0,20.0,-8455.0,-9987.0,-6104.0
-6732.0,-3568.0,5564.0,-6355.0,-26375.0,-5407.0
-2348.0,-6556.0,19768.0,3053.0,-32768.0,9008.0
7988.0,4380.0,32767.0,246.0,-27650.0,10174.0
7468.0,2644.0,32767.0,-261.0,-10354.0,-2200.0
2080.0,-1076.0,32767.0,1126.0,14973.0,-7811.0
648.0,-308.0,27048.0,-1611.0,26133.0,-7809.0
-1968.0,-2200.0,16896.0,-2807.0,30799.0,-4570.0
-5652.0,-2428.0,8736.0,-8.0,24410.0,3234.0
-5588.0,880.0,4668.0,4411.0,10370.0,6799.0
-4984.0,3196.0,1520.0,-2261.0,1054.0,-53.0
-6248.0,1840.0,-1108.0,-7968.0,-10565.0,-7955.0
-7684.0,-5748.0,9832.0,-944.0,-29288.0,-4631.0
-184.0,-2368.0,20200.0,1925.0,-32768.0,9134.0
5412.0,4348.0,32360.0,2677.0,-27662.0,5899.0
8060.0,3212.0,32767.0,1621.0,-8468.0,-2540.0
2580.0,880.0,32767.0,-873.0,18532.0,-8214.0
-312.0,-1328.0,25196.0,-2429.0,30082.0,-6120.0
-1880.0,-180.0,13852.0,-274.0,32767.0,-1586.0
-5516.0,280.0,4888.0,-3217.0,30601.0,4728.0
-7732.0,464.0,1196.0,-1953.0,10958.0,5044.0
-6476.0,2444.0,-2704.0,-3853.0,-5116.0,-1541.0
-5608.0,704.0,-16.0,-8305.0,-19210.0,-6314.0
-3224.0,-3848.0,10908.0,546.0,-32768.0,-935.0
4188.0,-444.0,29728.0,-589.0,-32768.0,12482.0
6480.0,4296.0,32767.0,-998.0,-18948.0,3870.0
3660.0,3840.0,32767.0,816.0,8376.0,-7613.0
-1092.0,-1040.0,29296.0,-870.0,26768.0,-10839.0
-2644.0,-1100.0,17992.0,-1079.0,32410.0,-8518.0
-4440.0,-620.0,6772.0,878.0,25700.0,-153.0
-7440.0,-820.0,872.0,-3152.0,16258.0,2972.0
-7112.0,260.0,-2892.0,-4409.0,-1999.0,723.0
-6204.0,-876.0,-392.0,-5814.0,-20563.0,-3014.0
-3068.0,-2788.0,8096.0,4217.0,-32768.0,-300.0
7204.0,3044.0,25072.0,-10431.0,-24257.0,14502.0
5492.0,1136.0,32767.0,-887.0,-20827.0,2398.0
4668.0,888.0,32767.0,879.0,81.0,-6200.0
-584.0,-2440.0,32396.0,2038.0,20022.0,-8505.0
-1532.0,-2300.0,22096.0,282.0,32098.0,-9034.0
-3648.0,-1088.0,8180.0,-10.0,30642.0,330.0
-5636.0,-60.0,3824.0,2252.0,17753.0,6748.0
-5292.0,3620.0,-504.0,4334.0,-572.0,1143.0
-5572.0,1648.0,464.0,-7488.0,-12071.0,-4366.0
-7124.0,-1508.0,1740.0,-5824.0,-26748.0,-7271.0
-3608.0,-8048.0,18044.0,8393.0,-32768.0,7622.0
11464.0,6116.0,32767.0,-4662.0,-24293.0,11068.0
10472.0,5556.0,32767.0,1715.0,-14974.0,-2346.0
5248.0,640.0,32767.0,-2582.0,25223.0,-7829.0
600.0,-860.0,23512.0,-2098.0,32767.0,-9181.0
-2664.0,-1080.0,9064.0,-3319.0,32767.0,-1489.0
-7536.0,-1144.0,104.0,-3254.0,22666.0,5622.0
-5852.0,1388.0,-252.0,-931.0,3953.0,2669.0
-6084.0,496.0,-1500.0,-3629.0,-14402.0,-1311.0
-2408.0,400.0,5576.0,-2473.0,-30694.0,-1103.0
1304.0,-296.0,19788.0,-1838.0,-32768.0,7169.0
1972.0,-500.0,28912.0,-1500.0,-32768.0,5451.0
12432.0,4372.0,32767.0,-188.0,-15076.0,2230.0
6744.0,916.0,32767.0,-658.0,13876.0,-7982.0
2504.0,-2212.0,30352.0,1730.0,24761.0,-9549.0
824.0,-2040.0,20100.0,-256.0,32630.0,-5094.0
-4052.0,-2096.0,7912.0,-524.0,30026.0,6467.0
-4240.0,3204.0,1104.0,2910.0,19142.0,6808.0
-5672.0,3020.0,-1748.0,-2088.0,2197.0,-2877.0
-5600.0,1764.0,404.0,-8014.0,-12041.0,-5875.0
-4312.0,-432.0,4556.0,-5248.0,-29187.0,-6651.0
-456.0,-2160.0,23716.0,-2463.0,-28559.0,5005.0
1924.0,-1660.0,32767.0,606.0,-22910.0,4139.0
6596.0,4872.0,32767.0,3130.0,-2375.0,-2485.0
92.0,-1100.0,32767.0,1238.0,20707.0,-10457.0
-1452.0,-2100.0,21764.0,-868.0,28427.0,-7764.0
-3612.0,-1620.0,11056.0,974.0,31247.0,2513.0
-6108.0,1152.0,-548.0,-170.0,24043.0,4947.0
-6452.0,1288.0,-2736.0,-4121.0,3973.0,2121.0
-6100.0,2012.0,-4860.0,-9053.0,-13628.0,-4807.0
-4948.0,-1612.0,4212.0,-236.0,-32768.0,-5906.0
1512.0,-1756.0,18752.0,1763.0,-32768.0,8654.0
7636.0,2672.0,32767.0,1780.0,-31592.0,7687.0
11108.0,4472.0,32767.0,1022.0,-10707.0,-1009.0
4400.0,1168.0,32767.0,-1898.0,19049.0,-8900.0
1140.0,-1360.0,25524.0,-3400.0,31953.0,-6986.0
-2520.0,-668.0,11204.0,-1977.0,32002.0,-1411.0
-6496.0,-128.0,1836.0,-1968.0,22287.0,4673.0
-7052.0,28.0,1728.0,1656.0,3117.0,2477.0
-5992.0,160.0,2072.0,-4527.0,-8465.0,2170.0
-4632.0,692.0,3212.0,-1048.0,-22994.0,-1305.0
2068.0,400.0,13320.0,-2600.0,-31881.0,1513.0
6020.0,2540.0,25288.0,-4769.0,-29728.0,6689.0
8324.0,-1660.0,32767.0,1445.0,-18933.0,2106.0
7052.0,3716.0,32767.0,-253.0,11306.0,-9020.0
-184.0,-2600.0,29448.0,-1345.0,27472.0,-11610.0
-1528.0,-3480.0,20264.0,1071.0,28693.0,-4966.0
-2008.0,-76.0,8824.0,4917.0,31017.0,4936.0
-4664.0,1868.0,268.0,1055.0,21911.0,9196.0
-5640.0,2480.0,-1832.0,658.0,919.0,291.0
-4036.0,2816.0,-1008.0,-8314.0,-14944.0,-7715.0
-2820.0,-1384.0,6808.0,-3224.0,-32768.0,-8193.0
-424.0,-2288.0,20088.0,-4208.0,-25897.0,3277.0
340.0,-3204.0,32767.0,-1515.0,-23838.0,9400.0
5116.0,1804.0,32767.0,732.0,-6809.0,3410.0
2112.0,2372.0,32767.0,1153.0,17730.0,-5626.0
-280.0,-1512.0,26824.0,2235.0,25646.0,-7367.0
-1852.0,-24.0,13268.0,5152.0,27613.0,-1195.0
-4948.0,668.0,2808.0,698.0,23793.0,4001.0
-5616.0,2112.0,-888.0,2209.0,3659.0,2281.0
-4084.0,2200.0,-1132.0,-9605.0,-9442.0,-4309.0
-2892.0,340.0,2396.0,-4582.0,-29507.0,-5542.0
2724.0,-1368.0,17892.0,-4711.0,-30089.0,1858.0
5044.0,772.0,32767.0,-6111.0,-22540.0,5816.0
2752.0,-2228.0,32767.0,407.0,-15729.0,227.0
5288.0,2652.0,32767.0,2002.0,13020.0,-4612.0
-276.0,-2812.0,30372.0,1026.0,30294.0,-8522.0
-1272.0,-1428.0,15932.0,-261.0,31503.0,-1573.0
-3976.0,-88.0,3936.0,1034.0,28901.0,6639.0
-4364.0,3120.0,-880.0,168.0,10470.0,7357.0
-5164.0,1576.0,-1844.0,-4214.0,-8333.0,-3329.0
-3160.0,2332.0,888.0,-6465.0,-22246.0,-6351.0
576.0,-1716.0,15388.0,-269.0,-32768.0,-1405.0
2660.0,668.0,29448.0,-5142.0,-23337.0,4351.0
-576.0,-2252.0,32767.0,252.0,-20304.0,1789.0
6668.0,1568.0,32767.0,3330.0,2442.0,-1316.0
2052.0,964.0,31384.0,1165.0,23224.0,-10237.0
-2316.0,-3708.0,21716.0,-2288.0,28164.0,-4212.0
-3068.0,-444.0,10044.0,2558.0,26109.0,2597.0
-5116.0,1488.0,1356.0,-1480.0,18674.0,5296.0
-4492.0,2792.0,-1436.0,-3615.0,1597.0,318.0
-5592.0,-248.0,224.0,-6271.0,-16053.0,-6224.0
-3496.0,-1148.0,6400.0,-540.0,-32146.0,-2403.0
1764.0,-304.0,23828.0,-2889.0,-32768.0,13127.0
7096.0,76.0,32767.0,-411.0,-20099.0,4624.0
6808.0,3568.0,32767.0,1061.0,4162.0,-6655.0
1000.0,-3040.0,32767.0,1736.0,22458.0,-10344.0
412.0,-3604.0,22808.0,616.0,30963.0,-4527.0
-2420.0,-768.0,5104.0,806.0,32767.0,6013.0
-4564.0,2148.0,-2296.0,2150.0,19834.0,9523.0
-4392.0,2996.0,-3224.0,-2704.0,-450.0,-1012.0
-4724.0,2016.0,-680.0,-8830.0,-20431.0,-8578.0
-3448.0,-2056.0,12116.0,-2929.0,-32701.0,-6130.0
1332.0,-188.0,25800.0,-625.0,-29467.0,7698.0
2564.0,268.0,32767.0,-268.0,-18019.0,4519.0
6472.0,5636.0,32767.0,733.0,6776.0,-3623.0
-504.0,-152.0,29624.0,-1991.0,25213.0,-9602.0
-4024.0,-2916.0,17228.0,-2912.0,28322.0,-3296.0
-5684.0,-1632.0,7368.0,3379.0,21933.0,4821.0
-5664.0,1492.0,2344.0,5868.0,7367.0,4789.0
-4404.0,3192.0,640.0,-4888.0,-733.0,671.0
-4148.0,3052.0,-324.0,-8840.0,-16283.0,-5615.0
-2760.0,-3720.0,12008.0,-1560.0,-31778.0,-3327.0
4368.0,-100.0,29872.0,-2891.0,-29702.0,8736.0
4992.0,2576.0,32767.0,-2770.0,-9787.0,2121.0
1260.0,2320.0,32767.0,940.0,9080.0,-6333.0
-2096.0,-1396.0,28944.0,-220.0,23562.0,-6131.0
-2916.0,-1260.0,18504.0,-472.0,30153.0,-2509.0
-5332.0,-420.0,5168.0,1392.0,24651.0,3345.0
-6104.0,1448.0,1272.0,3126.0,9315.0,6163.0
-3636.0,4584.0,-396.0,-5983.0,-4320.0,-1741.0
-4168.0,1248.0,3092.0,-5316.0,-21088.0,-6069.0
-948.0,-944.0,8928.0,-3063.0,-32768.0,-5459.0
6028.0,1012.0,23604.0,-4652.0,-32544.0,7579.0
6780.0,-2048.0,32767.0,713.0,-22555.0,491.0
3528.0,1232.0,32767.0,-776.0,6009.0,-4519.0
-2220.0,-4144.0,32248.0,905.0,22029.0,-4380.0
-3040.0,-3704.0,24364.0,690.0,32767.0,-802.0
-1308.0,-416.0,16460.0,5253.0,31945.0,5682.0
-3224.0,2936.0,3368.0,2447.0,32767.0,11816.0
-3840.0,6580.0,-3588.0,2508.0,11548.0,6832.0
-6424.0,1688.0,-2696.0,-6706.0,-5867.0,-11296.0
-5656.0,1288.0,896.0,-8190.0,-24261.0,-13188.0
-5172.0,-5288.0,10960.0,-2083.0,-32768.0,-3372.0
1128.0,-1816.0,22252.0,198.0,-31495.0,4816.0
5220.0,2432.0,29276.0,-2305.0,-24295.0,8101.0
6784.0,1728.0,32767.0,479.0,-12963.0,533.0
5248.0,3104.0,32767.0,945.0,10503.0,-6578.0
32.0,-1168.0,29904.0,502.0,26644.0,-8346.0
-3136.0,-1820.0,18936.0,-3192.0,32734.0,-3735.0
-5456.0,-148.0,6384.0,475.0,28014.0,4319.0
-6084.0,1156.0,2672.0,2031.0,13418.0,4090.0
-4752.0,3160.0,-1332.0,-2076.0,-969.0,129.0
-3820.0,2604.0,1020.0,-10304.0,-12121.0,-9963.0
-4172.0,-3768.0,12332.0,-3193.0,-28927.0,-6378.0
-892.0,-5524.0,26812.0,-1763.0,-30206.0,1062.0
3164.0,-380.0,31244.0,-806.0,-25497.0,2808.0
3576.0,-544.0,32767.0,1817.0,-5548.0,1722.0
1348.0,-364.0,32720.0,1873.0,16664.0,-2563.0
-1440.0,-1328.0,22744.0,481.0,25435.0,-3437.0
-2208.0,-448.0,15212.0,1381.0,28236.0,1247.0
-4400.0,1644.0,5956.0,2400.0,19819.0,4128.0
-6184.0,2072.0,2956.0,-3122.0,10365.0,1123.0
-5928.0,2388.0,-288.0,-8604.0,-2625.0,-4968.0
-5780.0,-1432.0,4644.0,-3812.0,-22113.0,-8351.0
-2596.0,-3452.0,16104.0,611.0,-30477.0,-32.0
-944.0,-2064.0,25972.0,1744.0,-31654.0,5505.0
4324.0,-1380.0,32767.0,4209.0,-19235.0,3513.0
6908.0,2096.0,32767.0,144.0,8596.0,-1507.0
756.0,-756.0,29080.0,287.0,25181.0,-6306.0
-1952.0,-1472.0,20084.0,-3357.0,32767.0,-2624.0
-4512.0,104.0,9904.0,-2017.0,30222.0,2778.0
-5332.0,2432.0,3756.0,-2984.0,22914.0,3055.0
-7096.0,2288.0,-1028.0,-3838.0,6681.0,-4138.0
-7708.0,-512.0,-1276.0,-2604.0,-17038.0,-5684.0
-4824.0,-2556.0,4088.0,4307.0,-32768.0,-5700.0
600.0,-224.0,16852.0,11225.0,-32768.0,6631.0
9464.0,-4788.0,32767.0,4989.0,-32768.0,6066.0
18296.0,9004.0,32767.0,-4193.0,-1496.0,4257.0
9276.0,2188.0,32767.0,-697.0,21041.0,-6796.0
3804.0,-380.0,25148.0,-5315.0,32767.0,-7340.0
-568.0,-1944.0,15584.0,-3250.0,32767.0,2366.0
-3400.0,2652.0,4208.0,-4600.0,32767.0,4143.0
-7600.0,516.0,1056.0,-1442.0,16933.0,5756.0
-5512.0,3576.0,-1380.0,-3918.0,1466.0,-3544.0
-5504.0,1108.0,-1092.0,-8241.0,-16821.0,-13895.0
-5992.0,-5656.0,10080.0,-1940.0,-27382.0,-5649.0
-3976.0,-3976.0,28668.0,-1623.0,-19356.0,8440.0
-4520.0,-1208.0,32767.0,-295.0,-17085.0,5742.0
-5296.0,-424.0,32767.0,1404.0,767.0,-1627.0
-6984.0,-1280.0,29980.0,1462.0,17742.0,-3956.0
-8200.0,-3124.0,20376.0,2316.0,18442.0,-3563.0
-6356.0,44.0,9300.0,4076.0,16072.0,2351.0
-7832.0,-252.0,3820.0,3927.0,8559.0,2877.0
-5024.0,1396.0,6136.0,-935.0,1715.0,3944.0
-3380.0,2164.0,8580.0,-2659.0,-6962.0,-1805.0
-2760.0,1536.0,8472.0,-3163.0,-10894.0,-4379.0
-3084.0,-1784.0,12564.0,-3430.0,-17796.0,-4981.0
-5144.0,-2736.0,21860.0,-3442.0,-19833.0,4066.0
-5672.0,-360.0,29324.0,26.0,-29181.0,5652.0
-4032.0,1676.0,32767.0,-180.0,-11989.0,1772.0
-1324.0,508.0,32767.0,2840.0,6942.0,-1265.0
1056.0,1064.0,29392.0,3705.0,21238.0,-6207.0
644.0,644.0,18456.0,1975.0,28226.0,-3151.0
-2540.0,936.0,6532.0,-551.0,27689.0,2565.0
-4596.0,808.0,4108.0,1036.0,14328.0,1423.0
-4572.0,2508.0,188.0,-4666.0,1826.0,-1908.0
-4844.0,1716.0,396.0,-6273.0,-14325.0,-8137.0
-5192.0,-3984.0,8272.0,-5902.0,-25187.0,-6318.0
-4100.0,-4096.0,24432.0,-746.0,-28476.0,7227.0
-1076.0,1460.0,32767.0,-4163.0,-23271.0,5985.0
-204.0,1488.0,32767.0,1891.0,-2193.0,-1179.0
-1776.0,520.0,32328.0,1805.0,18002.0,-7289.0
-3964.0,-3176.0,22008.0,583.0,25745.0,-4557.0
-2284.0,428.0,12016.0,5097.0,23630.0,2477.0
-4472.0,1232.0,3708.0,158.0,18374.0,4340.0
-5144.0,2044.0,0.0,-963.0,3789.0,-148.0
-3860.0,1468.0,780.0,-7480.0,-7905.0,-5525.0
-2740.0,-160.0,5036.0,-5367.0,-23098.0,-8285.0
-1684.0,-4260.0,16900.0,-5729.0,-22951.0,718.0
-1628.0,-5304.0,32228.0,439.0,-32768.0,4512.0
4224.0,1672.0,32767.0,-257.0,-20821.0,5466.0
1948.0,2084.0,32767.0,1839.0,4849.0,-3067.0
-1840.0,-1844.0,30668.0,1880.0,22671.0,-4072.0
-1776.0,-1336.0,22668.0,-316.0,30208.0,-2151.0
-2236.0,-876.0,16028.0,2674.0,28288.0,3726.0
-2328.0,3564.0,4208.0,1384.0,25349.0,5445.0
-3884.0,3260.0,1584.0,-129.0,12040.0,270.0
-5212.0,2428.0,-1660.0,-6212.0,-1054.0,-9068.0
-6188.0,-548.0,-156.0,-10438.0,-14455.0,-13235.0
-4848.0,-3760.0,11712.0,-11866.0,-17187.0,-5316.0
-9964.0,-7380.0,23980.0,-5572.0,-18236.0,3475.0
-8212.0,-5544.0,30980.0,336.0,-27496.0,3124.0
-2856.0,-2856.0,32767.0,5662.0,-6440.0,2428.0
-3664.0,-1252.0,30720.0,3522.0,16343.0,-2993.0
-6100.0,-4224.0,20440.0,5429.0,18143.0,-1856.0
-4740.0,-1352.0,11020.0,10001.0,13806.0,4786.0
-4892.0,1696.0,2996.0,4836.0,13868.0,6330.0
-4252.0,3468.0,776.0,2190.0,-2807.0,474.0
-3388.0,2912.0,1348.0,-6013.0,-13288.0,-4791.0
-3004.0,-628.0,7140.0,-1711.0,-29179.0,-7639.0
-428.0,-1884.0,19272.0,-1912.0,-28695.0,5641.0
-116.0,-4524.0,32767.0,4506.0,-32067.0,5711.0
13328.0,8592.0,32767.0,2004.0,-14160.0,7198.0
9312.0,7052.0,32767.0,348.0,14961.0,-10248.0
1820.0,-448.0,27492.0,-2283.0,27005.0,-10087.0
1516.0,428.0,20452.0,-1237.0,31123.0,-3936.0
-916.0,2656.0,6184.0,-3482.0,32767.0,2211.0
-4880.0,2192.0,-648.0,-6353.0,24778.0,4405.0
-4804.0,3344.0,-3124.0,-7344.0,4051.0,-6558.0
-4756.0,696.0,-1272.0,-7960.0,-15337.0,-14318.0
-3828.0,-3760.0,5940.0,-5435.0,-31039.0,-11632.0
-836.0,-8248.0,25140.0,10262.0,-32768.0,4454.0
10120.0,-432.0,32767.0,5387.0,-32768.0,7370.0
12244.0,7620.0,32767.0,-339.0,-9025.0,305.0
3616.0,-1476.0,32767.0,-225.0,22083.0,-6481.0
-828.0,-3516.0,25512.0,-2221.0,32767.0,-3684.0
-440.0,-2988.0,18596.0,1726.0,32767.0,5988.0
-584.0,2616.0,8664.0,-533.0,32767.0,11499.0
-3516.0,4796.0,-1692.0,-1479.0,22418.0,12024.0
-4528.0,3168.0,-1988.0,-6375.0,2350.0,-8984.0
-3652.0,4016.0,-5284.0,-15623.0,-13270.0,-17104.0
-7964.0,-6448.0,9032.0,1803.0,-32768.0,-10661.0
3532.0,-1080.0,22956.0,8483.0,-32768.0,1844.0
5624.0,1552.0,32767.0,3545.0,-32768.0,2714.0
8160.0,96.0,32767.0,2674.0,-6308.0,-242.0
5324.0,492.0,32767.0,513.0,22906.0,-6591.0
1076.0,-1532.0,23412.0,-4007.0,32767.0,-7696.0
-2924.0,-3620.0,13108.0,-1604.0,32767.0,1919.0
-4780.0,1292.0,1396.0,-2088.0,25343.0,8410.0
-4536.0,2916.0,244.0,-1899.0,9985.0,4184.0
-4684.0,3992.0,-6032.0,-8677.0,-14168.0,-6587.0
-5108.0,-3976.0,3048.0,-2416.0,-32768.0,-10441.0
5092.0,-3328.0,18164.0,10186.0,-32768.0,1291.0
19080.0,8448.0,32767.0,7766.0,-32768.0,5438.0
11048.0,5172.0,32767.0,-5548.0,2853.0,-4013.0
2224.0,-2696.0,29896.0,-4718.0,27022.0,-6170.0
-1144.0,-2816.0,20360.0,-8185.0,32767.0,-3740.0
-3224.0,-3008.0,14548.0,-3684.0,30571.0,6498.0
-4232.0,2012.0,6412.0,-2966.0,28304.0,6127.0
-5720.0,1844.0,2000.0,-2720.0,10835.0,3519.0
-6972.0,2924.0,-2324.0,-3874.0,-12709.0,-4424.0
-6252.0,-1912.0,4324.0,306.0,-32768.0,-5730.0
-3304.0,-4128.0,15864.0,2802.0,-32768.0,3824.0
7780.0,2428.0,30656.0,454.0,-32768.0,5094.0
8296.0,4664.0,32767.0,363.0,-19797.0,2246.0
7112.0,108.0,32767.0,-489.0,9981.0,-3759.0
3732.0,-848.0,27332.0,-2485.0,25133.0,-6530.0
208.0,-1012.0,16704.0,-744.0,32767.0,-2026.0
-3564.0,-1076.0,8576.0,232.0,32767.0,4727.0
-4580.0,2508.0,2356.0,2797.0,14467.0,3106.0
-6008.0,376.0,1984.0,-4436.0,254.0,-2918.0
-5944.0,908.0,-400.0,-8855.0,-15332.0,-5373.0
-4460.0,-4568.0,10244.0,-2949.0,-28398.0,-4707.0
1204.0,548.0,21172.0,-1706.0,-28469.0,7729.0
1020.0,-4376.0,32767.0,-3477.0,-26207.0,5525.0
7660.0,2080.0,32767.0,2136.0,-2860.0,-333.0
224.0,-136.0,30856.0,-911.0,22326.0,-7433.0
-3660.0,-5696.0,21780.0,1703.0,24647.0,-4494.0
-2024.0,-336.0,10844.0,4012.0,22693.0,4802.0
-2920.0,976.0,5320.0,1864.0,17209.0,8300.0
-2844.0,2008.0,1932.0,2191.0,106.0,-153.0
-1920.0,1700.0,4292.0,-3929.0,-10335.0,-3797.0
-2664.0,-1148.0,7488.0,-6334.0,-21438.0,-6510.0
-1396.0,-1932.0,18352.0,-4607.0,-22489.0,3327.0
-428.0,856.0,30832.0,-2026.0,-30049.0,4668.0
3176.0,8.0,32767.0,1319.0,-13987.0,1886.0
4448.0,3016.0,32767.0,863.0,14140.0,-6203.0
1020.0,-1732.0,27568.0,750.0,30932.0,-8976.0
-1144.0,-1936.0,15828.0,2079.0,27105.0,-947.0
-3344.0,40.0,4020.0,-406.0,25721.0,7440.0
-4312.0,904.0,892.0,-543.0,9443.0,4693.0
-2808.0,2312.0,-36.0,-3771.0,-5939.0,-2044.0
-2004.0,404.0,4248.0,-5490.0,-20775.0,-7640.0
1312.0,-656.0,17104.0,-4021.0,-26673.0,-5038.0
-2456.0,-2996.0,32152.0,-3530.0,-24423.0,2984.0
-4104.0,-1296.0,32767.0,-1737.0,-13470.0,431.0
-3428.0,-692.0,32767.0,3149.0,7492.0,-1234.0
-3184.0,-2380.0,29484.0,2584.0,23798.0,-2521.0
-792.0,-712.0,20256.0,4548.0,23315.0,1193.0
-680.0,1376.0,9640.0,5896.0,23996.0,5783.0
-2772.0,2716.0,2048.0,-26.0,14733.0,6117.0
-3068.0,2684.0,-784.0,-3476.0,994.0,-4131.0
-3636.0,164.0,3556.0,-8267.0,-15359.0,-9036.0
-3164.0,-2380.0,8524.0,-6178.0,-28023.0,-6259.0
-72.0,-2700.0,23620.0,-2070.0,-28877.0,3468.0
3808.0,176.0,32767.0,707.0,-25973.0,4157.0
2172.0,2892.0,32767.0,162.0,-1437.0,-3021.0
-1008.0,-1664.0,30740.0,1881.0,15070.0,-3921.0
-156.0,-1084.0,23892.0,1815.0,26861.0,-1345.0
-516.0,1764.0,12968.0,3474.0,29607.0,1708.0
-5228.0,676.0,2160.0,-2241.0,18890.0,5144.0
-3712.0,3560.0,1004.0,-257.0,2622.0,-137.0
-2956.0,2336.0,984.0,-6875.0,-10766.0,-9221.0
-2148.0,-588.0,4848.0,-5100.0,-27667.0,-7468.0
-948.0,-5760.0,19372.0,-1855.0,-32768.0,596.0
8392.0,-1948.0,32767.0,3716.0,-32768.0,7823.0
8512.0,2116.0,32767.0,373.0,-771.0,-3069.0
1244.0,-1744.0,31428.0,-122.0,22435.0,-5386.0
-860.0,-2916.0,24384.0,-1806.0,32767.0,-1841.0
-896.0,-552.0,17076.0,1459.0,32767.0,2898.0
-2588.0,2444.0,5424.0,-1184.0,26681.0,4390.0
-4244.0,2548.0,2176.0,-621.0,9322.0,1560.0
-4740.0,2396.0,-2428.0,-4450.0,-4147.0,-5899.0
-5460.0,-340.0,1036.0,-6694.0,-18110.0,-8306.0
-5484.0,-5368.0,14508.0,-1566.0,-30627.0,13.0
2716.0,-744.0,32296.0,3416.0,-32768.0,8662.0
6424.0,4284.0,32767.0,2192.0,-16896.0,1955.0
3620.0,1292.0,32767.0,1500.0,8706.0,-5066.0
412.0,-556.0,25488.0,-2777.0,28529.0,-5299.0
-1884.0,-240.0,14920.0,-3373.0,32767.0,-3035.0
-5912.0,-1220.0,5120.0,-4384.0,21364.0,2814.0
-4096.0,2624.0,1612.0,-2110.0,6264.0,1281.0
-4260.0,1868.0,-1776.0,-7670.0,-9457.0,-5647.0
-4456.0,-2824.0,6996.0,941.0,-29468.0,-2897.0
3516.0,-1052.0,21380.0,1879.0,-32768.0,1711.0
9520.0,1636.0,32767.0,1095.0,-26372.0,4768.0
6784.0,560.0,32767.0,1492.0,4478.0,-5722.0
1164.0,-2944.0,30628.0,-95.0,29011.0,-5112.0
-1436.0,-1632.0,18884.0,-2133.0,32767.0,-3687.0
-3668.0,-568.0,8836.0,766.0,30461.0,4912.0
-5300.0,1324.0,1688.0,-2032.0,16971.0,5542.0
-4772.0,2868.0,-2624.0,-4737.0,-55.0,-544.0
-5432.0,984.0,-2012.0,-8185.0,-17270.0,-7473.0
-3768.0,-5220.0,12444.0,6637.0,-32768.0,-1225.0
9360.0,3460.0,30480.0,2512.0,-32768.0,9488.0
10208.0,4632.0,32767.0,12.0,-9598.0,-1072.0
652.0,-192.0,30820.0,-2253.0,18886.0,-8793.0
-2812.0,-2228.0,21880.0,-4590.0,32767.0,-3361.0
-4044.0,-564.0,11744.0,-4581.0,28839.0,1355.0
-5348.0,-148.0,6192.0,-2.0,16694.0,5593.0
-4060.0,2628.0,1396.0,-1997.0,6812.0,2837.0
-3680.0,3144.0,-1076.0,-9932.0,-6026.0,-5793.0
-4768.0,-4672.0,7380.0,-4424.0,-21548.0,-7634.0
1000.0,-1796.0,19924.0,8409.0,-32768.0,1893.0
4904.0,596.0,32767.0,7605.0,-32768.0,2400.0
8564.0,3220.0,32767.0,1412.0,-13019.0,-1451.0
2588.0,-156.0,32767.0,-367.0,17648.0,-4453.0
-468.0,-3076.0,26140.0,-2923.0,32247.0,-1510.0
-996.0,-1324.0,17972.0,-4830.0,32767.0,1699.0
-256.0,2044.0,11272.0,-576.0,25590.0,8104.0
-1984.0,3728.0,4208.0,-4544.0,22371.0,5390.0
-4600.0,3872.0,-484.0,-5004.0,3024.0,-1758.0
-4528.0,580.0,2328.0,-5781.0,-13838.0,-10509.0
-5272.0,-3116.0,9964.0,-1994.0,-29084.0,-5358.0
-1944.0,-2208.0,25744.0,813.0,-32768.0,-2385.0
208.0,-3888.0,32767.0,-1292.0,-12330.0,-1801.0
-3180.0,-1740.0,32767.0,1518.0,10045.0,-2704.0
-5676.0,-5236.0,27288.0,4721.0,17660.0,-622.0
-2464.0,-556.0,19452.0,3099.0,25322.0,698.0
-4604.0,-16.0,7392.0,1823.0,19618.0,6259.0
-3208.0,3104.0,6548.0,8745.0,4486.0,5066.0
-2256.0,5956.0,1072.0,-3697.0,-930.0,-3759.0
-6752.0,36.0,3848.0,-9420.0,-11106.0,-9280.0
-4788.0,-1912.0,9736.0,-7822.0,-21492.0,-3751.0
-3316.0,-3328.0,30192.0,-471.0,-28410.0,4660.0
544.0,836.0,32767.0,2461.0,-8915.0,1212.0
-3268.0,-52.0,31920.0,1367.0,15478.0,-5344.0
-5628.0,-2624.0,21924.0,5046.0,18395.0,-3980.0
-4328.0,60.0,12248.0,5224.0,17932.0,1423.0
-5240.0,1208.0,5448.0,3518.0,10925.0,3836.0
-4140.0,3276.0,2556.0,-50.0,-696.0,-2414.0
-3656.0,2988.0,2556.0,-7660.0,-7504.0,-3677.0
-4948.0,-1524.0,10148.0,-6412.0,-19355.0,-4419.0
-4128.0,-1380.0,23348.0,2530.0,-27052.0,6376.0
528.0,1864.0,32767.0,1971.0,-13065.0,5228.0
1176.0,5288.0,32767.0,2404.0,7928.0,-5763.0
-4396.0,-1224.0,23060.0,417.0,16411.0,-6754.0
-4416.0,292.0,13232.0,3182.0,16770.0,-674.0
-4292.0,2252.0,6836.0,2123.0,10351.0,1772.0
-4408.0,2900.0,5064.0,-2591.0,3195.0,-1254.0
-5404.0,2024.0,3284.0,-10483.0,-6079.0,-5840.0
-6300.0,-3556.0,14860.0,-964.0,-18572.0,884.0
-3136.0,664.0,24808.0,-7375.0,-8277.0,9208.0
-4512.0,1336.0,30300.0,-557.0,-15992.0,4976.0
-672.0,2064.0,32767.0,708.0,114.0,-1143.0
-1244.0,1656.0,28696.0,1061.0,13937.0,-4568.0
-3248.0,308.0,17044.0,2542.0,21482.0,394.0
-4044.0,1700.0,7356.0,2342.0,19473.0,2317.0
-5312.0,2476.0,2876.0,2568.0,10139.0,753.0
-5052.0,3424.0,908.0,-6601.0,-6110.0,-2680.0
-5596.0,532.0,3880.0,-6361.0,-22435.0,-4767.0
-3048.0,-1896.0,12532.0,3252.0,-32768.0,1586.0
2456.0,892.0,26408.0,6049.0,-32768.0,7227.0
9404.0,5860.0,32767.0,2092.0,-14521.0,3809.0
8424.0,5628.0,32767.0,91.0,7436.0,-4132.0
4576.0,2504.0,30700.0,-1633.0,27816.0,-6596.0
2780.0,2400.0,21032.0,-5418.0,32767.0,-5909.0
-4236.0,-52.0,3744.0,-9819.0,32767.0,1183.0
-4100.0,3044.0,4640.0,-393.0,26392.0,3057.0
-7760.0,1492.0,-3516.0,-9033.0,9784.0,-4001.0
-10764.0,-1204.0,-5808.0,-879.0,-20086.0,-3847.0
-6688.0,-2460.0,8268.0,2317.0,-32768.0,1078.0
5904.0,4824.0,20924.0,10412.0,-32768.0,11832.0
9004.0,6304.0,32767.0,9063.0,-32768.0,44.0
9608.0,4548.0,32767.0,-3628.0,-619.0,-1777.0
8864.0,3588.0,30088.0,-1820.0,19912.0,-4565.0
4660.0,3148.0,19372.0,-4042.0,32767.0,-6088.0
-2216.0,1660.0,11364.0,-63.0,32767.0,-2732.0
-6260.0,1908.0,1788.0,-1917.0,27774.0,592.0
-6832.0,2988.0,1124.0,-6623.0,11918.0,-3556.0
-8044.0,856.0,-4792.0,-11654.0,-9785.0,-10492.0
-4108.0,-964.0,5456.0,-7291.0,-23419.0,-7922.0
-2908.0,-4804.0,22768.0,2034.0,-28247.0,5030.0
464.0,540.0,32767.0,2325.0,-30260.0,5779.0
1248.0,3220.0,32767.0,1376.0,-6255.0,-989.0
-3532.0,-852.0,30776.0,2645.0,10726.0,-5395.0
-3628.0,-1840.0,24912.0,4632.0,13879.0,-3941.0
-1668.0,-396.0,18056.0,8684.0,13709.0,1674.0
-1860.0,3144.0,7524.0,3347.0,19169.0,4224.0
-2452.0,4092.0,4840.0,-589.0,10904.0,2043.0
-1172.0,5196.0,2716.0,-6376.0,-1232.0,-2531.0
-1108.0,3324.0,3672.0,-9572.0,-12792.0,-10788.0
-2556.0,416.0,13500.0,-5612.0,-22507.0,-3807.0
-6340.0,-4712.0,30788.0,-3254.0,-21560.0,3601.0
112.0,28.0,32767.0,109.0,-12507.0,3183.0
-628.0,2420.0,32767.0,2270.0,13899.0,-5391.0
-4424.0,-3724.0,27460.0,3802.0,21918.0,-3779.0
-2424.0,-260.0,17116.0,6113.0,23596.0,3832.0
-2524.0,3264.0,4992.0,1860.0,27271.0,8944.0
-1448.0,7152.0,-648.0,-1955.0,10642.0,3979.0
-3052.0,3460.0,-600.0,-9559.0,-3450.0,-7581.0
-196.0,4684.0,2292.0,-10103.0,-23065.0,-13938.0
-3652.0,-3700.0,16820.0,-1072.0,-28117.0,-4343.0
-4540.0,-3920.0,32024.0,1099.0,-28000.0,3278.0
364.0,708.0,32767.0,2251.0,-17104.0,2961.0
-720.0,1784.0,32767.0,1939.0,10216.0,-3971.0
-2824.0,-824.0,26692.0,2530.0,17960.0,-2744.0
-2016.0,220.0,18728.0,1345.0,24004.0,-906.0
-2960.0,2288.0,8972.0,1958.0,18975.0,2728.0
-3028.0,4456.0,3664.0,-1015.0,11077.0,-183.0
-4532.0,1360.0,1744.0,-5181.0,-4851.0,-3337.0
-3556.0,2272.0,1164.0,-8397.0,-14149.0,-5730.0
-5564.0,-5588.0,15788.0,2191.0,-29106.0,1857.0
1200.0,2464.0,32572.0,-629.0,-20141.0,7339.0
3232.0,3780.0,32767.0,1778.0,-14126.0,4173.0
2184.0,3284.0,32767.0,1747.0,8777.0,-5422.0
-656.0,196.0,26008.0,-751.0,27115.0,-5171.0
-2856.0,640.0,11296.0,-3163.0,29707.0,146.0
-4860.0,1204.0,4104.0,-1887.0,22235.0,2419.0
-4808.0,3996.0,-1804.0,-4037.0,5332.0,-1048.0
-6168.0,1416.0,-1328.0,-7370.0,-11884.0,-4819.0
-4600.0,-380.0,9952.0,-249.0,-31420.0,-1752.0
1256.0,1896.0,29872.0,-3847.0,-28451.0,5153.0
4100.0,2016.0,32767.0,1973.0,-21028.0,1031.0
3144.0,2036.0,32767.0,1049.0,9268.0,-5303.0
-1364.0,-1800.0,26572.0,-1056.0,26683.0,-6577.0
-3108.0,-1172.0,15620.0,-999.0,32767.0,-290.0
-4984.0,1404.0,3676.0,-2324.0,25297.0,5465.0
-5168.0,3604.0,-732.0,-2236.0,10617.0,-26.0
-5808.0,2192.0,-3164.0,-6630.0,-9117.0,-5004.0
-5224.0,-884.0,4984.0,-3585.0,-27260.0,-6913.0
-2424.0,344.0,17940.0,3255.0,-32768.0,4600.0
-556.0,-1408.0,32767.0,3174.0,-32768.0,5431.0
8012.0,4852.0,32767.0,157.0,-1494.0,-1164.0
1000.0,268.0,29044.0,-823.0,15628.0,-7157.0
-96.0,-808.0,23476.0,-2212.0,28635.0,-3778.0
-3688.0,-1368.0,12116.0,-1434.0,29870.0,1989.0
-5036.0,1260.0,3388.0,-931.0,22066.0,4716.0
-6268.0,2140.0,-1320.0,-1721.0,2099.0,-30.0
-4760.0,2748.0,-1832.0,-8156.0,-13674.0,-4553.0
-6176.0,-3752.0,10452.0,-1036.0,-32217.0,-1716.0
-392.0,-2352.0,28456.0,-781.0,-32768.0,8269.0
8752.0,4468.0,32767.0,1158.0,-23187.0,6560.0
8024.0,4076.0,32767.0,853.0,4395.0,-4094.0
2248.0,520.0,29444.0,-1232.0,28596.0,-6899.0
-2720.0,-1560.0,18772.0,-870.0,29229.0,-4287.0
-5100.0,-1408.0,9912.0,1079.0,22511.0,2122.0
-5172.0,3000.0,2628.0,906.0,13285.0,2909.0
-5760.0,2464.0,-796.0,-6054.0,-247.0,-3074.0
-3560.0,2768.0,740.0,-7091.0,-16174.0,-5671.0
-5172.0,-4852.0,15900.0,-1934.0,-26695.0,-3405.0
1280.0,-204.0,31996.0,-1566.0,-27113.0,5243.0
2872.0,144.0,32767.0,-545.0,-9138.0,2192.0
460.0,1892.0,32767.0,717.0,12623.0,-5396.0
-3472.0,-2296.0,25216.0,1062.0,21114.0,-3179.0
-2704.0,-780.0,17476.0,1415.0,25142.0,1365.0
-4684.0,1244.0,5292.0,-662.0,22184.0,4767.0
-5148.0,3436.0,724.0,-76.0,6773.0,936.0
-3736.0,3116.0,-1348.0,-8161.0,-5979.0,-4539.0
-3952.0,76.0,3480.0,-8132.0,-19213.0,-7628.0
-6496.0,-5368.0,21024.0,1840.0,-28789.0,3030.0
-1988.0,-720.0,32767.0,-2191.0,-22832.0,4948.0
2596.0,1636.0,32767.0,3818.0,-11431.0,1319.0
1728.0,2156.0,32767.0,-629.0,18330.0,-5237.0
-4816.0,-3196.0,23992.0,554.0,23654.0,-5095.0
-3760.0,-384.0,13164.0,1898.0,23975.0,-1008.0
-5800.0,148.0,2444.0,-1974.0,17553.0,4168.0
-5536.0,1816.0,1184.0,378.0,397.0,547.0
-4008.0,2240.0,3396.0,-4106.0,-10844.0,-3171.0
-3284.0,616.0,6084.0,-6357.0,-18720.0,-4545.0
-4328.0,-2640.0,19920.0,1097.0,-27109.0,3762.0
108.0,-456.0,32767.0,-3149.0,-21270.0,4245.0
1428.0,1220.0,32767.0,91.0,-1639.0,-765.0
-1124.0,540.0,31928.0,1236.0,16207.0,-5555.0
-4056.0,-2364.0,22744.0,-1689.0,26064.0,-3610.0
-4160.0,-704.0,12240.0,-836.0,24056.0,1935.0
-5228.0,660.0,3340.0,965.0,15718.0,4036.0
-4236.0,3424.0,-2856.0,-2152.0,1288.0,1218.0
-3788.0,1316.0,-2116.0,-10412.0,-8542.0,-4375.0
-1188.0,-356.0,8532.0,893.0,-32768.0,-3480.0
3608.0,-736.0,31736.0,6612.0,-32768.0,5794.0
9196.0,5672.0,32767.0,-1438.0,-11802.0,36.0
2276.0,1952.0,32767.0,2056.0,9685.0,-8250.0
-1796.0,-2584.0,26912.0,249.0,22306.0,-6375.0
-2024.0,-2032.0,20572.0,-1022.0,27461.0,-2788.0
-3144.0,-392.0,10124.0,119.0,23925.0,4723.0
-4056.0,2052.0,2516.0,345.0,15857.0,4517.0
-3752.0,4044.0,-1176.0,-5080.0,2685.0,1012.0
-2516.0,3644.0,-616.0,-9714.0,-13067.0,-7580.0
-5260.0,-3612.0,13544.0,-1087.0,-27145.0,-2885.0
-2864.0,-992.0,32560.0,-108.0,-31392.0,4059.0
-952.0,636.0,32767.0,-40.0,-6843.0,397.0
-2152.0,672.0,32767.0,3111.0,11430.0,-4062.0
-4272.0,-1988.0,23412.0,-413.0,22008.0,-3476.0
-4184.0,-1432.0,14600.0,2486.0,21759.0,3137.0
-3988.0,1908.0,4688.0,-19.0,18754.0,6579.0
-4144.0,4104.0,-1304.0,-893.0,2410.0,794.0
-2944.0,3732.0,-1264.0,-9544.0,-8849.0,-4761.0
-4556.0,-1860.0,8908.0,-5442.0,-25956.0,-5887.0
-2708.0,-772.0,27308.0,-1754.0,-28632.0,3141.0
844.0,-1032.0,32767.0,2565.0,-18432.0,901.0
1424.0,2536.0,32767.0,2186.0,11832.0,-5654.0
-4852.0,-3356.0,26104.0,905.0,24646.0,-5968.0
-4328.0,-1152.0,14044.0,2685.0,23542.0,1051.0
-4692.0,1764.0,4052.0,-255.0,20644.0,4577.0
-5016.0,3072.0,1068.0,-2697.0,6648.0,417.0
-3872.0,3052.0,-1528.0,-9017.0,-3677.0,-2740.0
-5812.0,-368.0,2504.0,-7782.0,-20970.0,-5165.0
-4776.0,-3848.0,23320.0,7781.0,-32768.0,3746.0
2264.0,3856.0,32767.0,-4008.0,-24340.0,2039.0
1536.0,1132.0,32767.0,1889.0,-8477.0,253.0
2100.0,1148.0,32767.0,1907.0,17264.0,-5834.0
-3412.0,-2776.0,21176.0,-4562.0,29015.0,-4355.0
-3912.0,-1688.0,11620.0,22.0,24436.0,3574.0
-3612.0,2032.0,2828.0,-2305.0,19355.0,6229.0
-5344.0,1624.0,2808.0,822.0,359.0,1210.0
-3612.0,3892.0,1512.0,-8199.0,-5741.0,-2845.0
-4956.0,-196.0,11648.0,-5086.0,-22225.0,-7578.0
-6056.0,-892.0,21584.0,-2613.0,-22271.0,-337.0
-8108.0,-3480.0,31060.0,-63.0,-15229.0,83.0
-3972.0,-1076.0,32767.0,-1280.0,-1452.0,284.0
-2396.0,-240.0,32767.0,1620.0,13497.0,-1102.0
-5096.0,-3380.0,19648.0,511.0,21590.0,1629.0
-2792.0,784.0,9472.0,3635.0,19275.0,7105.0
-3228.0,3880.0,-28.0,1475.0,10440.0,4499.0
-3344.0,3368.0,-6252.0,-8060.0,-4109.0,-6985.0
-596.0,1544.0,-2672.0,-12478.0,-18332.0,-9927.0
0.0,-5668.0,17644.0,-7157.0,-32768.0,-5353.0
5516.0,-7256.0,32767.0,-244.0,-32768.0,-4547.0
15032.0,-2360.0,32767.0,7061.0,-15906.0,-1730.0
3488.0,-3732.0,32767.0,2862.0,23358.0,-4593.0
2320.0,-4296.0,26968.0,4301.0,32767.0,-1124.0
