ax,ay,az,gx,gy,gz
-2808.0,2284.0,18420.0,-523.0,-141.0,376.0
-2788.0,2148.0,18996.0,-940.0,-335.0,167.0
-3080.0,2168.0,18264.0,-1433.0,-292.0,-438.0
-2760.0,2284.0,18664.0,-697.0,-805.0,-419.0
-2728.0,2460.0,18396.0,-794.0,-511.0,-585.0
-2476.0,2368.0,19056.0,-927.0,-250.0,-534.0
-2604.0,2008.0,19160.0,-984.0,137.0,-654.0
-2812.0,1980.0,18756.0,-1000.0,-25.0,-416.0
-3092.0,1948.0,18284.0,-1781.0,709.0,-371.0
-2908.0,1748.0,18676.0,-1103.0,-181.0,-324.0
-2876.0,2112.0,18676.0,-1229.0,-208.0,-518.0
-2816.0,2088.0,18628.0,-1108.0,-76.0,-171.0
-2816.0,2240.0,18636.0,-641.0,-203.0,-728.0
-2956.0,1632.0,19296.0,-961.0,18.0,-456.0
-2536.0,2400.0,18592.0,-880.0,344.0,-643.0
-2656.0,2368.0,18320.0,-988.0,103.0,-1190.0
-2568.0,2032.0,18416.0,-854.0,15.0,-1195.0
-2328.0,1940.0,19060.0,-1409.0,1605.0,-1380.0
-3216.0,1548.0,18632.0,-2456.0,2427.0,-1771.0
-3988.0,972.0,18652.0,-2797.0,1736.0,-282.0
-3552.0,1596.0,18856.0,-2414.0,1623.0,-160.0
-3660.0,1612.0,17572.0,-2914.0,2888.0,-471.0
-3976.0,292.0,18884.0,-3626.0,2531.0,-385.0
-3296.0,864.0,19000.0,-3006.0,2912.0,-616.0
-2948.0,1056.0,19964.0,-4525.0,6983.0,-1880.0
-4328.0,1944.0,17692.0,-3623.0,14435.0,-7511.0
-6024.0,1056.0,16800.0,-916.0,20434.0,-13736.0
-16500.0,-2940.0,8520.0,-2605.0,16618.0,-10752.0
-18256.0,-5932.0,10688.0,-4700.0,5088.0,-1615.0
-20704.0,-7280.0,-284.0,3731.0,-30195.0,6931.0
-4268.0,-2944.0,5776.0,2513.0,-32768.0,8610.0
8500.0,-1652.0,17008.0,13142.0,-32768.0,3452.0
25124.0,7080.0,9412.0,-13822.0,-32768.0,-2734.0
25172.0,-2324.0,24032.0,-7366.0,-27422.0,-9352.0
25212.0,3648.0,20904.0,1477.0,1765.0,-8213.0
20932.0,3176.0,22396.0,-10412.0,32767.0,-3282.0
4568.0,-2368.0,17156.0,-9840.0,32767.0,3.0
-16596.0,-3000.0,2932.0,10889.0,32767.0,-8442.0
-21352.0,-7152.0,9104.0,-15389.0,28414.0,4305.0
-19520.0,-6488.0,9820.0,-704.0,15600.0,8387.0
-15604.0,-1712.0,-3552.0,-3512.0,-13766.0,8351.0
-12548.0,-8264.0,3224.0,-7205.0,-32768.0,12286.0
4508.0,-1652.0,2896.0,2503.0,-32768.0,6347.0
14140.0,-4980.0,15028.0,-1663.0,-32768.0,4354.0
26264.0,3376.0,13868.0,-8630.0,-32768.0,-1918.0
20512.0,-1612.0,21136.0,-4960.0,-21859.0,-8677.0
23028.0,1576.0,27236.0,-3306.0,13710.0,-6617.0
10684.0,584.0,23248.0,-959.0,32767.0,4744.0
552.0,3332.0,16088.0,8595.0,32767.0,2394.0
-16912.0,2564.0,8120.0,-6006.0,32767.0,-2391.0
-15668.0,-476.0,17444.0,-15937.0,32767.0,-5759.0
-19184.0,-3016.0,4392.0,-4244.0,26336.0,-1912.0
-17464.0,-4552.0,-5512.0,838.0,-11912.0,-2644.0
-14056.0,-7448.0,2556.0,1654.0,-32768.0,8543.0
-5000.0,-940.0,1800.0,11575.0,-32768.0,732.0
8732.0,-2600.0,11664.0,806.0,-32768.0,4492.0
21840.0,-196.0,16912.0,-8616.0,-32768.0,-4029.0
21236.0,-652.0,16068.0,-946.0,-31991.0,-1627.0
21192.0,1136.0,18788.0,-2477.0,-15185.0,-6419.0
19448.0,2692.0,22860.0,2890.0,16254.0,-7194.0
11380.0,3252.0,22008.0,-7573.0,32767.0,6135.0
3468.0,3404.0,20120.0,4262.0,32767.0,3181.0
-12040.0,364.0,13704.0,-485.0,32767.0,-9286.0
-16760.0,-1272.0,12992.0,-11572.0,32767.0,-4381.0
-15628.0,-3836.0,11076.0,-9440.0,26090.0,-2074.0
-17388.0,-5424.0,3304.0,-4908.0,17112.0,-719.0
-10976.0,-3236.0,5884.0,626.0,-5597.0,223.0
-16464.0,-9388.0,-848.0,-2628.0,-24662.0,6675.0
-1180.0,-1420.0,5652.0,4817.0,-32768.0,5956.0
7476.0,-192.0,6136.0,-7537.0,-32768.0,-1598.0
12692.0,-7408.0,19272.0,4420.0,-32768.0,-1497.0
23480.0,3144.0,13860.0,-8917.0,-30100.0,-3222.0
19292.0,-4392.0,23436.0,1588.0,-21980.0,-8594.0
16744.0,2332.0,18792.0,5496.0,6477.0,-2669.0
12008.0,2388.0,22756.0,4236.0,32415.0,4235.0
4476.0,4148.0,20044.0,7609.0,32767.0,8357.0
-3852.0,1284.0,20384.0,3487.0,32767.0,-745.0
-11816.0,-828.0,19656.0,-1087.0,32767.0,-2767.0
-13880.0,184.0,11256.0,-1824.0,29217.0,-7333.0
-21360.0,-3944.0,532.0,-10670.0,2164.0,-703.0
-12200.0,-3624.0,2236.0,-1655.0,-19418.0,4248.0
-7652.0,-5744.0,7840.0,609.0,-32768.0,637.0
6928.0,264.0,7912.0,6235.0,-32768.0,-3644.0
15944.0,1172.0,12580.0,-5609.0,-32768.0,-6985.0
23760.0,1632.0,18612.0,-2011.0,-31723.0,-7135.0
20092.0,3504.0,14596.0,-4371.0,-13128.0,-1818.0
19588.0,2848.0,23436.0,5671.0,3914.0,-6339.0
14720.0,4764.0,23404.0,-358.0,31563.0,4190.0
7104.0,4780.0,24076.0,-2153.0,32767.0,7275.0
-4700.0,2300.0,21952.0,5313.0,32767.0,-5772.0
-11292.0,2756.0,12356.0,-5174.0,32767.0,-249.0
-14136.0,3120.0,3396.0,-7803.0,27491.0,-3949.0
-16996.0,-2636.0,4196.0,-5669.0,10054.0,-4700.0
-14676.0,-2572.0,-1000.0,-5394.0,-17194.0,887.0
-9888.0,-2884.0,636.0,-6668.0,-32768.0,2071.0
7484.0,-948.0,10828.0,1608.0,-32768.0,-13262.0
3264.0,-8900.0,10992.0,11665.0,-32768.0,-2370.0
22280.0,-172.0,14132.0,-10101.0,-21008.0,1669.0
22536.0,1068.0,20560.0,2561.0,-17688.0,-5459.0
19864.0,4484.0,20752.0,-346.0,15017.0,-6081.0
9572.0,3044.0,21932.0,-952.0,32767.0,7379.0
4220.0,-72.0,24492.0,6236.0,32767.0,13567.0
-7644.0,12560.0,2872.0,-6043.0,32767.0,6884.0
-18880.0,-456.0,17264.0,-18860.0,32767.0,199.0
-16644.0,3036.0,180.0,-8465.0,32767.0,-4582.0
-18380.0,-3924.0,-3112.0,-8207.0,31359.0,-8146.0
-14940.0,-1024.0,-8988.0,2702.0,1166.0,-9179.0
-17832.0,-7912.0,-360.0,2787.0,-32768.0,-8589.0
-16316.0,-8712.0,-2716.0,14428.0,-32768.0,527.0
3556.0,-88.0,7732.0,12013.0,-32768.0,-277.0
8660.0,896.0,8324.0,10919.0,-32768.0,-7447.0
16072.0,1716.0,13648.0,5536.0,-32768.0,-10028.0
21216.0,-444.0,15932.0,-15306.0,-32768.0,-2132.0
20680.0,1984.0,14052.0,-2216.0,-26242.0,-10484.0
19608.0,528.0,13244.0,-913.0,-18148.0,-1371.0
8324.0,3628.0,8544.0,3456.0,-1924.0,-465.0
17176.0,1848.0,17900.0,9465.0,12441.0,3597.0
12560.0,5260.0,11236.0,443.0,-3208.0,2415.0
12852.0,-744.0,17896.0,3902.0,140.0,3110.0
15728.0,972.0,22220.0,16527.0,30111.0,13682.0
5724.0,2720.0,11840.0,16097.0,31413.0,17854.0
7620.0,1364.0,28268.0,10820.0,32767.0,16004.0
-7748.0,5572.0,17816.0,7161.0,32767.0,-5401.0
-2232.0,5812.0,11000.0,9818.0,32767.0,-5576.0
-12388.0,5140.0,7240.0,245.0,19760.0,-14369.0
-13044.0,3976.0,8252.0,-5167.0,-7510.0,-13310.0
-14496.0,828.0,6076.0,-697.0,-32010.0,-15127.0
-996.0,1292.0,9452.0,-8292.0,-32768.0,-8598.0
3032.0,-2772.0,15552.0,6825.0,-32768.0,-12145.0
13636.0,1556.0,11760.0,-10992.0,-32768.0,-6433.0
17244.0,-2128.0,16564.0,-9233.0,-32768.0,-11812.0
20852.0,1984.0,8584.0,-9210.0,-25459.0,-3256.0
15724.0,-1328.0,10932.0,-5187.0,-16600.0,-8531.0
15880.0,-1420.0,13800.0,6338.0,-2613.0,765.0
14520.0,2772.0,8544.0,7557.0,-14134.0,2089.0
21396.0,3972.0,12728.0,12348.0,8378.0,-1001.0
18312.0,4572.0,13060.0,11979.0,10299.0,3203.0
18312.0,3276.0,20320.0,14062.0,15769.0,236.0
7432.0,3508.0,7816.0,14360.0,32767.0,18431.0
2408.0,3224.0,25632.0,8123.0,32767.0,18592.0
-64.0,5168.0,19956.0,1732.0,32767.0,326.0
-5532.0,2752.0,18504.0,5.0,18011.0,-9817.0
-10012.0,4016.0,9948.0,-8624.0,15731.0,-16019.0
-11076.0,2436.0,11308.0,7540.0,14338.0,-12246.0
-13036.0,1832.0,6748.0,-3603.0,-19090.0,-14712.0
-10276.0,-3024.0,10668.0,-1961.0,-29097.0,-9362.0
-1572.0,-812.0,12132.0,1180.0,-32768.0,-10498.0
7888.0,-2112.0,11936.0,-321.0,-32768.0,-6516.0
15120.0,1952.0,8956.0,1834.0,-32768.0,-7950.0
21736.0,-3464.0,11440.0,-21424.0,-32768.0,-7899.0
21040.0,-2292.0,10032.0,-7192.0,-26455.0,281.0
18800.0,-2388.0,8996.0,-6357.0,-15805.0,-2276.0
18644.0,-2360.0,11244.0,1920.0,-5152.0,3205.0
18776.0,116.0,10176.0,3823.0,2128.0,2951.0
19808.0,-5736.0,16508.0,32767.0,32767.0,-3009.0
22928.0,1980.0,15188.0,5745.0,5093.0,-1750.0
15336.0,2412.0,19532.0,1963.0,8688.0,-1805.0
15808.0,1444.0,13504.0,11735.0,32767.0,2477.0
9420.0,408.0,19228.0,-3180.0,22735.0,3826.0
8052.0,-1420.0,22804.0,-6153.0,32767.0,9030.0
-1024.0,-1332.0,17156.0,4869.0,32767.0,16039.0
-6916.0,3244.0,12924.0,7932.0,23669.0,517.0
-13616.0,1576.0,10476.0,-11048.0,11217.0,-8067.0
-12504.0,-3276.0,16152.0,3391.0,-4423.0,-11194.0
-9124.0,-172.0,12216.0,2249.0,-19815.0,-8820.0
-8296.0,-2612.0,14348.0,8468.0,-26381.0,-8092.0
-3092.0,-984.0,11716.0,-1847.0,-32768.0,-1669.0
6420.0,-636.0,10180.0,10867.0,-32768.0,-4355.0
23460.0,9540.0,5004.0,-7112.0,-32768.0,2930.0
20420.0,-2044.0,4764.0,-21351.0,-32294.0,-3344.0
20808.0,-156.0,8096.0,-7303.0,-19553.0,-2583.0
18148.0,-1036.0,5828.0,-8755.0,-13177.0,-4412.0
19468.0,-4124.0,11628.0,1195.0,-350.0,2683.0
17332.0,2412.0,6380.0,3486.0,-3796.0,-560.0
17444.0,864.0,11116.0,8545.0,5704.0,-5721.0
13012.0,4492.0,2708.0,4274.0,-169.0,690.0
19056.0,-1048.0,13128.0,4095.0,-2605.0,-8369.0
20572.0,972.0,9972.0,10454.0,14350.0,-1589.0
19960.0,996.0,15244.0,8159.0,32767.0,4021.0
15864.0,3692.0,14436.0,6199.0,31211.0,4596.0
12436.0,2288.0,15804.0,-7289.0,32767.0,17265.0
1392.0,1808.0,12392.0,257.0,32767.0,14712.0
-4324.0,-652.0,16512.0,9222.0,32767.0,2522.0
-9712.0,2808.0,12956.0,-1182.0,32767.0,-4651.0
-12568.0,2764.0,10608.0,-849.0,8366.0,-8284.0
-11944.0,700.0,7888.0,3826.0,-11317.0,-14503.0
-11284.0,-1100.0,7176.0,-4582.0,-32768.0,-7761.0
-272.0,-2132.0,6896.0,1562.0,-32768.0,-8828.0
7508.0,-608.0,9904.0,-1105.0,-32768.0,-12822.0
22528.0,-1920.0,14056.0,-4608.0,-32768.0,-1645.0
20576.0,-484.0,4832.0,-11858.0,-32768.0,-1790.0
24760.0,-3584.0,12552.0,-8754.0,-31250.0,-7756.0
17360.0,-400.0,4596.0,-6860.0,-6282.0,-3143.0
16552.0,-2464.0,9020.0,571.0,-1516.0,-53.0
9668.0,2584.0,4828.0,3118.0,-2493.0,4356.0
12828.0,-2676.0,2904.0,14899.0,13743.0,-485.0
16468.0,3788.0,15356.0,2599.0,19627.0,-5933.0
12708.0,308.0,18528.0,2190.0,17525.0,2239.0
13360.0,1204.0,18316.0,-1234.0,32767.0,3621.0
5624.0,2664.0,17116.0,-13727.0,32767.0,10821.0
940.0,-3380.0,21904.0,-5521.0,32767.0,14288.0
-1972.0,-2232.0,20628.0,3066.0,32767.0,13285.0
-11396.0,3768.0,7808.0,4666.0,25466.0,-3541.0
-11752.0,724.0,12308.0,-2125.0,7518.0,-5057.0
-16308.0,-424.0,7028.0,-3626.0,-13776.0,-7866.0
-8904.0,-1708.0,11772.0,2741.0,-32768.0,-6584.0
636.0,588.0,13168.0,-865.0,-32768.0,-8024.0
4624.0,308.0,10108.0,1690.0,-32768.0,-15307.0
18028.0,2032.0,10368.0,-2827.0,-32768.0,-4549.0
18388.0,640.0,2144.0,-10907.0,-32768.0,-10153.0
28352.0,1260.0,4036.0,-7152.0,-31267.0,-936.0
22008.0,428.0,1912.0,-14342.0,-14647.0,-4191.0
18204.0,-1464.0,3824.0,4197.0,16374.0,1259.0
15460.0,1604.0,7488.0,6120.0,2841.0,512.0
18968.0,-500.0,9316.0,14173.0,32767.0,3852.0
20208.0,4384.0,8428.0,6058.0,11546.0,1656.0
19824.0,-3132.0,20104.0,12268.0,32767.0,-2929.0
18336.0,2348.0,15516.0,10504.0,32767.0,9295.0
7992.0,3092.0,15352.0,-9073.0,32767.0,19865.0
1784.0,-3372.0,24548.0,1257.0,32767.0,12144.0
-2320.0,1108.0,16028.0,3272.0,22864.0,3414.0
-3736.0,2544.0,17100.0,-3268.0,20701.0,-3151.0
-7032.0,1400.0,13880.0,-1452.0,2322.0,-13948.0
-7032.0,-844.0,11140.0,-6565.0,-18098.0,-14688.0
-2292.0,-2840.0,8548.0,5222.0,-32768.0,-21587.0
10104.0,-5828.0,13512.0,3576.0,-32768.0,-8324.0
21064.0,4964.0,7464.0,-5311.0,-32768.0,-5947.0
24088.0,724.0,8764.0,-16182.0,-32768.0,-7640.0
15436.0,-820.0,6208.0,-3728.0,-15557.0,-50.0
20268.0,2660.0,6160.0,-1191.0,-1082.0,706.0
13984.0,-832.0,8748.0,3489.0,-1640.0,3614.0
18156.0,1684.0,10948.0,5414.0,13913.0,1977.0
17060.0,1552.0,10128.0,6855.0,12408.0,-2354.0
18576.0,-908.0,16276.0,6256.0,16992.0,703.0
18304.0,1712.0,15268.0,5302.0,14820.0,8987.0
16572.0,472.0,17352.0,93.0,32767.0,13598.0
8112.0,1544.0,17092.0,-1093.0,32767.0,13563.0
-680.0,-3576.0,20416.0,-3534.0,23035.0,10150.0
-3252.0,-452.0,17124.0,3058.0,32206.0,9431.0
-7372.0,-624.0,16368.0,3233.0,10025.0,-5046.0
-5284.0,-1016.0,15768.0,2531.0,-9824.0,-7166.0
-808.0,2540.0,12608.0,3958.0,-16496.0,-10780.0
2896.0,-1544.0,15232.0,3637.0,-26932.0,-11870.0
8164.0,-536.0,12672.0,-1585.0,-32768.0,691.0
17076.0,5680.0,5260.0,-10070.0,-32768.0,-8816.0
17688.0,-4736.0,8908.0,-17627.0,-32768.0,-6275.0
25468.0,-1956.0,11108.0,-14392.0,-24542.0,-4406.0
13816.0,-3188.0,6900.0,-5240.0,-7975.0,-4016.0
21484.0,-784.0,11796.0,2564.0,416.0,708.0
17356.0,2164.0,10036.0,5882.0,-38.0,-433.0
15292.0,1292.0,12804.0,10632.0,9600.0,622.0
20624.0,2616.0,13368.0,13195.0,32767.0,4848.0
13640.0,-1580.0,18080.0,7815.0,32767.0,20703.0
12204.0,3520.0,19856.0,2651.0,32767.0,11629.0
-2100.0,2312.0,16016.0,-4840.0,32767.0,15306.0
-11868.0,-32.0,14932.0,11434.0,32767.0,-1069.0
-11532.0,1092.0,14864.0,-3045.0,21054.0,-4188.0
-12808.0,828.0,6772.0,1816.0,-7259.0,-15189.0
-12764.0,-820.0,7568.0,1312.0,-15376.0,-11796.0
-9116.0,-544.0,2904.0,9578.0,-32768.0,-12156.0
7740.0,-372.0,8796.0,1602.0,-32768.0,-8248.0
22768.0,-360.0,14956.0,-3690.0,-32768.0,-8636.0
16552.0,68.0,7324.0,-9383.0,-32768.0,-8101.0
26704.0,-3212.0,15444.0,-11370.0,-21112.0,-1451.0
14084.0,96.0,7120.0,1366.0,-5776.0,2276.0
18244.0,1644.0,12724.0,1578.0,-1001.0,2822.0
16996.0,3444.0,12964.0,6650.0,8342.0,-601.0
18384.0,1500.0,14460.0,1925.0,2072.0,-710.0
20548.0,-4252.0,22776.0,15931.0,32729.0,-1494.0
15456.0,-752.0,19460.0,5813.0,32767.0,12906.0
6916.0,-700.0,19028.0,2902.0,32767.0,19838.0
868.0,2220.0,15756.0,3551.0,32767.0,19715.0
-6976.0,688.0,18356.0,2875.0,32767.0,4031.0
-9652.0,1008.0,15200.0,528.0,19599.0,-1993.0
-8580.0,5032.0,10868.0,4326.0,2293.0,-8384.0
-10168.0,-380.0,10764.0,2398.0,-9397.0,-13147.0
-6672.0,-152.0,772.0,-10085.0,-32768.0,-11806.0
13872.0,-936.0,10604.0,-6735.0,-32768.0,-13499.0
21804.0,1840.0,11696.0,-11516.0,-32768.0,-7433.0
21460.0,-5024.0,12716.0,-13737.0,-32768.0,-3080.0
23672.0,-2956.0,11844.0,-6419.0,-11476.0,-2266.0
13312.0,-2328.0,8580.0,2899.0,-1805.0,-2949.0
19704.0,-1860.0,14664.0,5323.0,1589.0,-876.0
16024.0,-344.0,14476.0,7966.0,-2907.0,-3522.0
21312.0,1792.0,18764.0,9193.0,10031.0,-7401.0
13336.0,2588.0,14016.0,4828.0,32095.0,2490.0
13696.0,-1116.0,19956.0,-2841.0,32767.0,12847.0
5120.0,-4400.0,20920.0,5926.0,28487.0,5313.0
-1504.0,28.0,18824.0,-4827.0,32767.0,12987.0
-3708.0,-1652.0,21104.0,6790.0,29205.0,4928.0
-6476.0,2732.0,15156.0,1230.0,25584.0,-2162.0
-8128.0,1188.0,13036.0,629.0,2637.0,-11443.0
-9892.0,-692.0,9344.0,-2935.0,-9475.0,-9568.0
-5792.0,-480.0,5512.0,2879.0,-32768.0,-10213.0
7500.0,-392.0,9860.0,1109.0,-32768.0,-1256.0
16164.0,3476.0,11412.0,-5867.0,-32768.0,-3582.0
29004.0,2128.0,13692.0,-20263.0,-32768.0,-4904.0
20616.0,-1944.0,12692.0,-5547.0,-14352.0,-2689.0
15872.0,1236.0,6952.0,-1097.0,-2869.0,-3812.0
15968.0,-1144.0,10832.0,-1330.0,1329.0,1504.0
15336.0,1120.0,13036.0,1619.0,5478.0,-64.0
15936.0,564.0,18212.0,4427.0,29161.0,5396.0
14276.0,-2372.0,20920.0,7354.0,32767.0,14403.0
6372.0,-444.0,19644.0,1792.0,32767.0,12826.0
-2316.0,-3528.0,20408.0,1353.0,32767.0,14634.0
-5636.0,-728.0,19540.0,1694.0,32767.0,14336.0
-8360.0,1068.0,16988.0,6740.0,32767.0,7545.0
-11608.0,3852.0,7920.0,3298.0,12118.0,-4828.0
-11260.0,860.0,10416.0,2073.0,-2963.0,-10463.0
-11944.0,1568.0,2672.0,3605.0,-32506.0,-14095.0
-752.0,-2296.0,13944.0,-1112.0,-32768.0,-10858.0
8524.0,3772.0,8388.0,-1488.0,-32768.0,-13671.0
14272.0,-7328.0,16228.0,-3276.0,-32768.0,-9589.0
23356.0,60.0,7684.0,-15768.0,-32768.0,-1550.0
22100.0,-8688.0,16952.0,-4754.0,-27405.0,-3144.0
24176.0,-80.0,11140.0,-5123.0,410.0,4430.0
16756.0,-2636.0,11816.0,-269.0,6778.0,3181.0
6832.0,3324.0,3396.0,3559.0,-9064.0,954.0
14084.0,-672.0,14228.0,3332.0,6771.0,-2132.0
18584.0,-1548.0,20344.0,13090.0,29685.0,4058.0
14764.0,2040.0,16556.0,5601.0,32767.0,10105.0
9736.0,2016.0,19208.0,-1339.0,32767.0,9506.0
2572.0,-736.0,17412.0,-1736.0,32767.0,11020.0
-7012.0,-3080.0,17208.0,9058.0,32767.0,3995.0
-13832.0,-204.0,13532.0,381.0,30596.0,-422.0
-14408.0,604.0,6712.0,3579.0,-7400.0,-12597.0
-5804.0,-1824.0,12612.0,-467.0,-19744.0,-8782.0
-6208.0,556.0,8648.0,7397.0,-31560.0,-9649.0
4348.0,-1776.0,12028.0,901.0,-32768.0,-5670.0
12756.0,1928.0,11536.0,2812.0,-32768.0,-9580.0
20204.0,2628.0,11172.0,-6909.0,-32768.0,-5142.0
24436.0,-2704.0,15872.0,-10454.0,-32768.0,-3458.0
18036.0,-1408.0,9680.0,-3340.0,-8226.0,1942.0
15304.0,-1732.0,9712.0,-3605.0,670.0,1117.0
14812.0,1036.0,11284.0,2399.0,-309.0,2999.0
17516.0,-176.0,15136.0,3150.0,6368.0,1175.0
16304.0,-708.0,17888.0,10056.0,20151.0,5728.0
15252.0,1224.0,19232.0,5271.0,32767.0,6018.0
9736.0,-968.0,22192.0,-5909.0,32767.0,13857.0
-924.0,-5540.0,18864.0,-3311.0,32767.0,15015.0
-8184.0,236.0,11244.0,1368.0,32767.0,7468.0
-10212.0,-3268.0,16572.0,2840.0,32767.0,1450.0
-10056.0,-712.0,10036.0,5621.0,6604.0,-8908.0
-9236.0,-2632.0,13512.0,4894.0,-14077.0,-11642.0
-9076.0,-1356.0,6872.0,13319.0,-32768.0,-11087.0
2600.0,-504.0,8284.0,6669.0,-32768.0,-6165.0
10652.0,2004.0,10952.0,3615.0,-32768.0,-13055.0
21776.0,1748.0,10548.0,-8289.0,-32768.0,-3138.0
24528.0,28.0,10784.0,-11048.0,-31883.0,-5191.0
17940.0,-3756.0,9916.0,-1617.0,-10341.0,2958.0
19708.0,324.0,6284.0,-2587.0,-5238.0,2856.0
14988.0,-1940.0,9392.0,2966.0,7434.0,3949.0
18340.0,1184.0,11356.0,6089.0,8414.0,-303.0
17976.0,316.0,16568.0,4848.0,21580.0,-2018.0
11640.0,-784.0,15300.0,7860.0,28287.0,4361.0
14792.0,-612.0,23308.0,-5306.0,32767.0,12927.0
7796.0,-1852.0,21332.0,-883.0,32767.0,12916.0
-9032.0,-4856.0,13588.0,4631.0,32767.0,10690.0
-5096.0,-2068.0,19052.0,1732.0,23740.0,5295.0
-13244.0,-1648.0,8044.0,3642.0,-457.0,-8011.0
-56.0,-5388.0,25608.0,2680.0,-13910.0,-1397.0
-3728.0,1656.0,13092.0,7384.0,-3460.0,2268.0
-1088.0,2548.0,9116.0,-491.0,-27209.0,389.0
10412.0,5228.0,-464.0,-11179.0,-32768.0,-8521.0
26388.0,-4584.0,17828.0,-9979.0,-32768.0,-10834.0
18920.0,-1900.0,6124.0,-16591.0,-27712.0,-375.0
21284.0,-4696.0,9328.0,-3018.0,-14565.0,-8780.0
19680.0,-1892.0,10340.0,-4314.0,5795.0,2718.0
13364.0,-1392.0,9996.0,-442.0,4254.0,3522.0
15920.0,-1260.0,12388.0,1784.0,148.0,999.0
13464.0,-1316.0,13488.0,4777.0,2537.0,-1453.0
20372.0,-2784.0,19920.0,4146.0,15779.0,2780.0
16212.0,-932.0,15912.0,5761.0,32504.0,-169.0
9592.0,-3924.0,17740.0,-5206.0,32767.0,12851.0
-4000.0,-8516.0,20048.0,5501.0,32767.0,11121.0
-1796.0,-3280.0,19532.0,-271.0,32767.0,22660.0
-6792.0,1196.0,12700.0,9679.0,18740.0,2631.0
-8024.0,584.0,15512.0,-2345.0,4813.0,-5218.0
-11492.0,-3632.0,8192.0,11030.0,-13569.0,-8183.0
772.0,1612.0,8096.0,-1112.0,-32768.0,-5552.0
12636.0,-16.0,12568.0,-3773.0,-32768.0,-13371.0
21624.0,2524.0,6280.0,-14008.0,-32768.0,-8521.0
22668.0,-6052.0,12500.0,-15393.0,-31795.0,-9181.0
20056.0,-5024.0,9488.0,-7287.0,-17739.0,79.0
19768.0,-3292.0,7148.0,-5292.0,864.0,-2339.0
13876.0,-2144.0,9532.0,5427.0,10533.0,499.0
19068.0,-368.0,15048.0,7384.0,11623.0,4524.0
12124.0,-956.0,14136.0,12709.0,32767.0,6603.0
10444.0,-1888.0,22056.0,-3879.0,32767.0,15612.0
968.0,-5656.0,21196.0,6904.0,32767.0,15894.0
-3320.0,-3968.0,20880.0,6936.0,26030.0,12370.0
-6196.0,-304.0,16928.0,6000.0,32767.0,13015.0
-9256.0,1948.0,15068.0,50.0,19971.0,2940.0
-7308.0,3116.0,14128.0,1967.0,2039.0,-8099.0
-10244.0,-1064.0,9452.0,4025.0,-18235.0,-13599.0
-2228.0,-1012.0,5760.0,5732.0,-32768.0,-12346.0
14164.0,1960.0,12328.0,-2229.0,-32768.0,-10951.0
18716.0,60.0,15484.0,-7311.0,-32768.0,-12386.0
21084.0,-892.0,10712.0,-15707.0,-23255.0,-1718.0
21656.0,-5148.0,19116.0,-5387.0,-10280.0,-7006.0
8992.0,-336.0,3980.0,-1823.0,-3440.0,803.0
16100.0,920.0,15072.0,5102.0,-5540.0,4968.0
14480.0,2236.0,15900.0,1507.0,2242.0,2125.0
15536.0,-4124.0,25508.0,6570.0,27837.0,8321.0
14588.0,792.0,17948.0,7648.0,32767.0,12596.0
-1684.0,-7032.0,21472.0,7249.0,32767.0,11847.0
-1004.0,-2076.0,20408.0,2929.0,28321.0,17577.0
-5284.0,-88.0,20508.0,4487.0,30560.0,6888.0
-8488.0,2060.0,18044.0,933.0,20029.0,-349.0
-6184.0,1612.0,16964.0,6592.0,12032.0,-6434.0
-7376.0,2348.0,12984.0,3067.0,19582.0,-5687.0
-9708.0,1944.0,2464.0,4529.0,-3664.0,-10882.0
-6292.0,-1856.0,3512.0,-7295.0,-32768.0,-10360.0
6168.0,-1920.0,11260.0,-440.0,-32768.0,-10703.0
14216.0,-4536.0,15772.0,-6252.0,-32768.0,-6494.0
25136.0,1796.0,9436.0,-18057.0,-32768.0,-6330.0
22628.0,-7188.0,16216.0,-5833.0,-29991.0,-5908.0
18724.0,-2080.0,10668.0,-4740.0,-3936.0,-7258.0
15828.0,-928.0,11632.0,4304.0,-2876.0,-1276.0
16932.0,1320.0,12108.0,4668.0,1206.0,-1496.0
17312.0,-808.0,21204.0,7752.0,27802.0,739.0
10228.0,-736.0,18448.0,7458.0,32767.0,15810.0
12444.0,-5536.0,20460.0,2717.0,32767.0,28031.0
328.0,-2356.0,20104.0,10394.0,32767.0,12857.0
-7744.0,1256.0,14448.0,-468.0,32767.0,12835.0
-12392.0,-412.0,14508.0,8466.0,24559.0,766.0
-11456.0,2324.0,11332.0,395.0,11988.0,-4196.0
-9920.0,756.0,10304.0,5015.0,-13866.0,-11576.0
-5804.0,944.0,4188.0,-4881.0,-32768.0,-10415.0
5020.0,-3188.0,9808.0,-2255.0,-32768.0,-10260.0
18888.0,24.0,11576.0,-23152.0,-32768.0,-6904.0
21100.0,-7664.0,15364.0,-14625.0,-32768.0,-16521.0
20244.0,-2336.0,9508.0,-7306.0,-24151.0,-3611.0
18152.0,-2576.0,10132.0,1662.0,-7015.0,-6764.0
20396.0,640.0,17184.0,5283.0,20972.0,-1439.0
7616.0,2584.0,9624.0,6208.0,32767.0,-1734.0
6684.0,-3016.0,21496.0,-638.0,9090.0,874.0
9488.0,-4436.0,23596.0,5544.0,12787.0,11516.0
10744.0,-1296.0,24888.0,3155.0,30623.0,11839.0
-992.0,-2796.0,18472.0,6410.0,32767.0,11558.0
-940.0,-592.0,18664.0,-1689.0,32767.0,14980.0
-5824.0,744.0,17464.0,4798.0,32767.0,2280.0
-11412.0,760.0,12468.0,-1265.0,27951.0,-5032.0
-13160.0,-692.0,6800.0,2263.0,-1768.0,-3974.0
-13268.0,-2120.0,3052.0,2593.0,-31634.0,-828.0
1292.0,1356.0,1760.0,-2687.0,-32768.0,-3398.0
21284.0,2632.0,13248.0,-9323.0,-32768.0,-13651.0
29024.0,-4632.0,16612.0,-22949.0,-32768.0,-15175.0
18836.0,-5244.0,12240.0,-7188.0,-23144.0,-4974.0
19836.0,-2812.0,11120.0,-2364.0,-3120.0,-5370.0
12224.0,-792.0,7496.0,728.0,-4993.0,2872.0
20484.0,328.0,16668.0,3912.0,12869.0,45.0
13400.0,-1312.0,18064.0,1617.0,16744.0,3159.0
10848.0,-3088.0,21764.0,6099.0,32767.0,16762.0
9748.0,-2336.0,23740.0,3553.0,32767.0,17047.0
1320.0,-3884.0,19476.0,12655.0,18096.0,3874.0
-1432.0,-1304.0,20200.0,2491.0,32767.0,13018.0
-2452.0,-920.0,22600.0,7105.0,29438.0,6215.0
-7396.0,3160.0,13000.0,2881.0,19389.0,-4165.0
-8516.0,1812.0,11920.0,-112.0,5411.0,-7232.0
-9668.0,-1912.0,9112.0,-1471.0,-18223.0,-6731.0
-176.0,-2328.0,3956.0,-5505.0,-32768.0,2199.0
20300.0,-2676.0,23696.0,-5978.0,-32768.0,-779.0
22652.0,-556.0,4880.0,-27972.0,-32768.0,-2612.0
23320.0,-9124.0,15380.0,-12057.0,-18938.0,-9174.0
18172.0,-2908.0,11264.0,-4135.0,-8726.0,-9534.0
13132.0,-2896.0,10572.0,-608.0,-4556.0,-11668.0
13988.0,336.0,12508.0,1648.0,-6564.0,-661.0
17208.0,-608.0,19364.0,6819.0,13016.0,-2266.0
12792.0,1336.0,14852.0,1806.0,29843.0,4687.0
14836.0,-3048.0,23872.0,-3398.0,32767.0,5909.0
4352.0,-4804.0,18452.0,137.0,32767.0,6035.0
-1952.0,-4228.0,18812.0,471.0,32767.0,5127.0
-7180.0,-3332.0,17040.0,2040.0,32767.0,8134.0
-11668.0,-2480.0,9532.0,9400.0,28146.0,-2769.0
-9244.0,440.0,11312.0,-800.0,-194.0,-1705.0
-7936.0,-728.0,15460.0,4770.0,1781.0,1079.0
-15016.0,-1944.0,-4588.0,942.0,-32768.0,157.0
11900.0,2316.0,3628.0,-5873.0,-32768.0,25.0
23828.0,-4880.0,22988.0,-19023.0,-32768.0,-5742.0
23236.0,-3896.0,9044.0,-17423.0,-32768.0,-6345.0
21676.0,-6632.0,17416.0,-7890.0,-16480.0,-7748.0
15000.0,-3000.0,9804.0,-2354.0,2616.0,-4101.0
14608.0,-1384.0,15720.0,1934.0,13835.0,1790.0
12444.0,-1880.0,19872.0,5711.0,32767.0,13015.0
7028.0,-3504.0,22732.0,3193.0,32767.0,22762.0
-1248.0,-5288.0,21588.0,8906.0,32767.0,26510.0
-6324.0,1492.0,16324.0,10998.0,32767.0,21964.0
-12404.0,3032.0,16660.0,727.0,32767.0,8953.0
-14608.0,2024.0,12816.0,4934.0,19521.0,-896.0
-11068.0,4832.0,8724.0,4280.0,5763.0,-8273.0
-12488.0,-976.0,6032.0,1704.0,-954.0,-13704.0
-14796.0,-3872.0,-2556.0,-2339.0,-32768.0,-6743.0
-1112.0,-1716.0,2596.0,-3308.0,-32768.0,-3489.0
17592.0,-2952.0,15832.0,-5568.0,-32768.0,-11721.0
20944.0,1868.0,10444.0,-1962.0,-32768.0,-6520.0
27212.0,-3836.0,14652.0,-21082.0,-32566.0,-8990.0
15544.0,-6996.0,11932.0,3214.0,-13788.0,-5515.0
18672.0,1084.0,14092.0,2044.0,-3720.0,-3006.0
13152.0,-316.0,18004.0,8140.0,30920.0,-1336.0
10000.0,-1036.0,24012.0,-4093.0,32767.0,11857.0
6060.0,-2476.0,25140.0,-146.0,32767.0,5723.0
-4376.0,-1956.0,17908.0,-4357.0,13632.0,-1733.0
-1720.0,-2792.0,19468.0,-13152.0,8264.0,-3803.0
-3436.0,-5252.0,14116.0,-10277.0,-4636.0,-12420.0
5728.0,-1640.0,15224.0,-19311.0,-8886.0,-7052.0
9516.0,-3688.0,19572.0,-11115.0,6321.0,-17654.0
5456.0,-5484.0,14044.0,-12649.0,4832.0,-20058.0
6260.0,-6552.0,15488.0,-13567.0,6972.0,-18528.0
6276.0,-8816.0,14752.0,-9876.0,-874.0,-15297.0
7164.0,-9892.0,15444.0,-12097.0,394.0,-9242.0
8520.0,-9752.0,13208.0,-7010.0,559.0,-7289.0
6728.0,-13228.0,11940.0,-5041.0,-3692.0,-5499.0
10804.0,-12960.0,11620.0,-2303.0,1477.0,211.0
5692.0,-16380.0,14448.0,6627.0,220.0,3443.0
4592.0,-11364.0,11648.0,17612.0,-6851.0,9646.0
7352.0,-9308.0,13828.0,11059.0,-3882.0,12993.0
9560.0,-8828.0,19028.0,25029.0,-4874.0,23815.0
12060.0,-644.0,9356.0,22530.0,12667.0,11974.0
2364.0,-3072.0,14148.0,14226.0,-7425.0,12326.0
13068.0,2620.0,12468.0,8193.0,-32768.0,9585.0
16144.0,5492.0,10388.0,-9003.0,-16489.0,-8029.0
8888.0,-4680.0,21504.0,1120.0,-26466.0,-14754.0
13176.0,1840.0,15072.0,-5709.0,-6525.0,2888.0
14780.0,-6288.0,24588.0,2586.0,12145.0,-2866.0
12584.0,-2332.0,23280.0,11903.0,32767.0,10297.0
7212.0,-4672.0,22084.0,4623.0,32767.0,17571.0
-1648.0,-1192.0,18904.0,9111.0,31887.0,9581.0
-7108.0,1024.0,16012.0,9318.0,15299.0,-2209.0
-7508.0,860.0,12824.0,-540.0,4946.0,-190.0
-8912.0,-1380.0,5452.0,-1262.0,-17280.0,-1224.0
6640.0,-108.0,4992.0,-17239.0,-32768.0,724.0
18900.0,-2640.0,15048.0,-10574.0,-32768.0,-8770.0
27828.0,-352.0,12276.0,-14813.0,-32768.0,-8598.0
20844.0,-1064.0,12676.0,-5471.0,-16790.0,-4572.0
18932.0,340.0,15408.0,1732.0,3093.0,-4594.0
14904.0,-372.0,20736.0,11282.0,15338.0,-1516.0
18656.0,3152.0,20348.0,13478.0,32767.0,8088.0
2820.0,1272.0,16732.0,8752.0,32767.0,12915.0
-4924.0,-288.0,22596.0,-1807.0,32767.0,9281.0
-6776.0,1580.0,16228.0,4179.0,25780.0,-4904.0
-8480.0,2916.0,11964.0,558.0,5093.0,-9957.0
-7892.0,-324.0,9016.0,-6898.0,-10406.0,-7506.0
-2032.0,-2356.0,7180.0,-9023.0,-32768.0,-5769.0
9804.0,-3624.0,9692.0,-12833.0,-32768.0,-5440.0
20064.0,-2536.0,7044.0,-16178.0,-32768.0,-6755.0
27632.0,-2972.0,13500.0,-14949.0,-19195.0,-9744.0
19616.0,364.0,11776.0,1638.0,-11049.0,-6292.0
19648.0,2224.0,13712.0,2867.0,2515.0,-3021.0
14960.0,-324.0,16012.0,16526.0,3780.0,-2612.0
13540.0,1552.0,22676.0,17404.0,32767.0,2398.0
5324.0,1968.0,25356.0,13052.0,17186.0,9073.0
8312.0,552.0,21928.0,6373.0,32767.0,20052.0
320.0,-836.0,22972.0,12347.0,32767.0,9106.0
-1420.0,5296.0,17964.0,1111.0,32767.0,-5617.0
-4920.0,3728.0,13784.0,1954.0,12436.0,-15386.0
-6620.0,1404.0,10332.0,-5735.0,5412.0,-11561.0
-11332.0,-2784.0,-3296.0,-11485.0,-32768.0,-9430.0
16740.0,-560.0,5916.0,-13764.0,-32768.0,-8708.0
20264.0,-11756.0,21032.0,-11980.0,-32768.0,-6357.0
23680.0,-4324.0,9672.0,-9399.0,-32768.0,-1339.0
27984.0,-2728.0,11140.0,-6485.0,-7635.0,-8520.0
23288.0,-1264.0,12476.0,1389.0,32767.0,-4773.0
14272.0,-336.0,15548.0,7536.0,32767.0,9484.0
12464.0,1084.0,18452.0,13109.0,32767.0,20705.0
-840.0,-1672.0,22508.0,4397.0,32767.0,32767.0
-88.0,5472.0,17280.0,12373.0,32767.0,19882.0
-11920.0,7472.0,9912.0,11329.0,32767.0,3299.0
-12328.0,7084.0,8376.0,7932.0,32767.0,1811.0
-7484.0,6344.0,-1988.0,3205.0,32767.0,-11501.0
-14040.0,120.0,-8612.0,-152.0,27476.0,-13796.0
-14444.0,-424.0,-9844.0,1707.0,5961.0,-10053.0
-17364.0,-2780.0,-11644.0,6900.0,-5911.0,-5275.0
-15724.0,-3112.0,-4628.0,3683.0,-27966.0,-3812.0
-13612.0,-3304.0,-2196.0,15212.0,-32768.0,169.0
-12572.0,260.0,-2500.0,2577.0,-32768.0,-3043.0
-10424.0,-3316.0,1656.0,5701.0,-32768.0,465.0
10300.0,2508.0,12680.0,-3033.0,-32768.0,-498.0
12332.0,2552.0,12528.0,278.0,-32768.0,-13616.0
20808.0,-100.0,13492.0,-18025.0,-32768.0,-3133.0
20656.0,-4988.0,12468.0,-12111.0,-32768.0,-15425.0
26860.0,-2204.0,8552.0,-9212.0,-29087.0,-6820.0
21452.0,-1528.0,6700.0,-3575.0,-3782.0,-5691.0
18500.0,1116.0,4984.0,114.0,-7438.0,-1444.0
18212.0,-3792.0,8104.0,5823.0,12314.0,82.0
17316.0,488.0,6416.0,7880.0,9872.0,517.0
15972.0,584.0,9232.0,7749.0,4859.0,-1218.0
19300.0,-64.0,10540.0,6459.0,-456.0,1082.0
17268.0,232.0,9720.0,11906.0,420.0,-394.0
19828.0,-2156.0,12952.0,26990.0,27851.0,8391.0
14684.0,4708.0,10144.0,24576.0,7945.0,9457.0
15448.0,2056.0,13700.0,30257.0,32767.0,11808.0
5700.0,3300.0,20860.0,23716.0,32767.0,10072.0
12916.0,12084.0,21896.0,11815.0,32767.0,7902.0
4944.0,6128.0,17052.0,16768.0,32767.0,-4343.0
528.0,6224.0,18528.0,24690.0,32767.0,-16875.0
-1516.0,8228.0,2608.0,16788.0,32767.0,-30124.0
-14112.0,2844.0,-8732.0,-6742.0,30704.0,-18631.0
-15884.0,4812.0,-6768.0,5315.0,8562.0,-11395.0
-16700.0,2388.0,-6808.0,2237.0,1366.0,-10483.0
-15676.0,2808.0,-8452.0,3036.0,-6601.0,-3976.0
-12232.0,2968.0,-6732.0,5127.0,-30129.0,-8747.0
-17748.0,-3704.0,-4500.0,-3135.0,-32768.0,-5468.0
-10392.0,-956.0,-4784.0,-2786.0,-32768.0,2168.0
2244.0,-716.0,7620.0,-7592.0,-32768.0,2533.0
13696.0,-1104.0,11408.0,1781.0,-32768.0,-11533.0
21780.0,560.0,12592.0,-12215.0,-32768.0,-5385.0
22780.0,-3716.0,14708.0,-19774.0,-32768.0,-14540.0
20520.0,-2588.0,16704.0,-8245.0,-14205.0,-12556.0
17632.0,-516.0,15112.0,2906.0,11206.0,-9451.0
15404.0,-1336.0,21620.0,13552.0,21748.0,-2926.0
8732.0,5304.0,9736.0,3439.0,4517.0,7267.0
7988.0,1568.0,23796.0,9423.0,16750.0,8242.0
5228.0,504.0,25032.0,13010.0,26710.0,13244.0
3612.0,4640.0,25536.0,5666.0,32767.0,15567.0
-1368.0,5176.0,18284.0,10000.0,31333.0,10212.0
-4676.0,7368.0,17976.0,7053.0,29666.0,-3552.0
-7000.0,8060.0,12100.0,290.0,20720.0,-11346.0
-11632.0,1844.0,11000.0,624.0,5862.0,-11555.0
-9468.0,1408.0,12528.0,4368.0,-5670.0,-7669.0
-8904.0,1588.0,11284.0,-4430.0,-21684.0,-1938.0
-6604.0,1264.0,13788.0,-4251.0,-21754.0,1172.0
-1228.0,1804.0,10664.0,-10517.0,-32768.0,-1255.0
7040.0,396.0,17772.0,-6825.0,-27065.0,-1013.0
10832.0,-2324.0,15444.0,-11538.0,-20581.0,-2584.0
18860.0,-2044.0,18276.0,-11924.0,-19904.0,-6218.0
15712.0,-2084.0,16800.0,-9421.0,-11104.0,-4784.0
17044.0,-1320.0,16200.0,-5206.0,-13795.0,-7865.0
13960.0,-3828.0,18024.0,1664.0,-3991.0,-5662.0
12344.0,-1988.0,17456.0,1859.0,9769.0,648.0
8920.0,3652.0,17028.0,9192.0,10597.0,4548.0
6292.0,2344.0,22716.0,8411.0,22656.0,11899.0
3256.0,3112.0,26440.0,18436.0,26894.0,15828.0
1216.0,7040.0,22056.0,276.0,27772.0,8344.0
-6592.0,2716.0,20740.0,7821.0,32767.0,6887.0
-3964.0,6588.0,18480.0,2067.0,2987.0,-2811.0
-4780.0,4656.0,13660.0,-6649.0,5761.0,-11355.0
-2452.0,1660.0,18420.0,1497.0,-2843.0,-9534.0
-2144.0,2320.0,13716.0,-1466.0,-2771.0,-9044.0
-3168.0,136.0,13576.0,-5323.0,-14698.0,-9405.0
-3352.0,-2768.0,12772.0,-7316.0,-22528.0,-267.0
6672.0,364.0,16840.0,-6808.0,-19997.0,98.0
5748.0,-3800.0,11324.0,-8133.0,-27801.0,-960.0
16836.0,-3632.0,18540.0,-12692.0,-13406.0,-3375.0
17100.0,-3924.0,17052.0,-6352.0,-13083.0,-5850.0
15624.0,-4228.0,16392.0,-7234.0,-1053.0,-6197.0
11716.0,-4768.0,16104.0,1042.0,-4181.0,-4960.0
10564.0,-4828.0,19960.0,3236.0,11569.0,780.0
6896.0,2444.0,15792.0,6099.0,9309.0,5849.0
8176.0,-1608.0,23308.0,7989.0,6419.0,6755.0
7432.0,1860.0,22892.0,6607.0,11646.0,8328.0
5780.0,3620.0,25492.0,13634.0,31976.0,11390.0
-1596.0,5360.0,19764.0,4074.0,32767.0,7930.0
-6896.0,4996.0,15164.0,2703.0,32767.0,790.0
-12592.0,3120.0,9740.0,-2450.0,-2549.0,-7785.0
-7264.0,2544.0,16840.0,-3690.0,-1584.0,-5673.0
-9484.0,1268.0,11048.0,4640.0,-11950.0,-10908.0
-3288.0,-852.0,16600.0,-10594.0,-15048.0,-6814.0
-256.0,-508.0,10780.0,-3370.0,-27326.0,-7659.0
4832.0,-4096.0,14148.0,-15440.0,-23455.0,-1568.0
11576.0,-1668.0,10792.0,-7830.0,-32768.0,-4028.0
20168.0,-7968.0,20276.0,-14585.0,-30104.0,-8677.0
15840.0,-7132.0,13200.0,-11569.0,-13076.0,-2949.0
19428.0,-7996.0,21044.0,6105.0,-1618.0,-36.0
13828.0,-616.0,10288.0,1059.0,956.0,-1673.0
14556.0,-780.0,16580.0,4669.0,9714.0,1003.0
10180.0,964.0,15456.0,9433.0,13996.0,3640.0
9136.0,-2184.0,22816.0,15430.0,31711.0,8202.0
5272.0,1860.0,23024.0,4519.0,13253.0,16554.0
2064.0,4288.0,16740.0,4461.0,32767.0,9229.0
-6856.0,1116.0,24292.0,4089.0,28142.0,2966.0
-6684.0,1540.0,16168.0,-1044.0,21900.0,-3588.0
-5756.0,1748.0,16592.0,-1922.0,4989.0,99.0
-1760.0,1972.0,15496.0,2127.0,2479.0,-4482.0
-4928.0,-720.0,12264.0,-8020.0,-757.0,-5803.0
-2880.0,-1764.0,8684.0,-5368.0,-18738.0,-6425.0
2776.0,-3224.0,12800.0,-20685.0,-14783.0,-4599.0
9644.0,-3836.0,10832.0,-16061.0,-32768.0,-8695.0
11412.0,-14228.0,23892.0,-11098.0,-20065.0,-15890.0
13056.0,-9576.0,15116.0,-13013.0,-25579.0,-5499.0
13516.0,-7444.0,17116.0,2095.0,-3493.0,-7036.0
9892.0,-7400.0,19372.0,9193.0,7764.0,-3268.0
8940.0,-1584.0,19056.0,7133.0,14563.0,4445.0
5208.0,-2264.0,17972.0,9157.0,1241.0,6348.0
4284.0,-3380.0,23700.0,24692.0,26803.0,7237.0
2236.0,1300.0,25924.0,7335.0,24346.0,11023.0
-224.0,4000.0,19332.0,3864.0,21916.0,3138.0
-6676.0,1680.0,21100.0,-2556.0,21749.0,4518.0
-4800.0,3156.0,16468.0,273.0,31565.0,-69.0
-8680.0,1420.0,11288.0,-8474.0,17168.0,-829.0
-8596.0,1528.0,9128.0,-689.0,1947.0,-7342.0
-11464.0,-2572.0,5996.0,-516.0,-16198.0,-8277.0
-5024.0,-2924.0,11796.0,-12388.0,-14253.0,-4961.0
-2084.0,-3904.0,9860.0,-7861.0,-28414.0,-2967.0
6280.0,-6212.0,16196.0,-13340.0,-24190.0,-4538.0
8452.0,-9404.0,16720.0,-8750.0,-24120.0,-4114.0
14092.0,-8696.0,27604.0,-3174.0,-7906.0,-5325.0
8356.0,-5660.0,19852.0,7399.0,-1705.0,-3535.0
7120.0,-3872.0,21440.0,9586.0,6163.0,921.0
1780.0,-3564.0,21300.0,8274.0,11801.0,5033.0
-1228.0,-2268.0,23764.0,12040.0,19103.0,11530.0
-1428.0,2052.0,25552.0,8849.0,15372.0,13078.0
-5796.0,6424.0,16744.0,7001.0,19908.0,2286.0
-6472.0,4708.0,20520.0,9056.0,17928.0,-3395.0
-10084.0,4464.0,13180.0,-132.0,11811.0,-9924.0
-10452.0,3616.0,7704.0,-6500.0,-1657.0,-13533.0
-8872.0,-1048.0,11716.0,-7261.0,-15863.0,-19823.0
-15068.0,-8072.0,10648.0,-6048.0,-9911.0,-164.0
-1696.0,-1416.0,13124.0,-5924.0,-10432.0,-375.0
-2832.0,-4104.0,11724.0,-1761.0,-14043.0,68.0
5496.0,-1780.0,13748.0,-941.0,-17286.0,107.0
3740.0,-5292.0,14392.0,-9386.0,-17823.0,-1076.0
8404.0,-6400.0,18728.0,-7637.0,-16395.0,1507.0
9028.0,-6308.0,17396.0,-8634.0,-15873.0,-2105.0
12288.0,-4868.0,17868.0,-2559.0,-7047.0,-386.0
11480.0,-5532.0,21324.0,419.0,-7646.0,-3929.0
8064.0,-3612.0,18636.0,4976.0,-4193.0,-2848.0
9504.0,-2044.0,22236.0,5581.0,6461.0,-1688.0
5884.0,-2152.0,24284.0,7949.0,4666.0,-4512.0
5732.0,-888.0,20540.0,4914.0,2310.0,-2510.0
5864.0,-620.0,23704.0,3463.0,6742.0,-4727.0
732.0,1172.0,17644.0,4923.0,13536.0,-3352.0
-864.0,148.0,20660.0,-1734.0,29393.0,1701.0
-5512.0,-740.0,14540.0,-5563.0,22929.0,1873.0
-4484.0,-1292.0,16628.0,-3631.0,8757.0,3858.0
-3864.0,-1456.0,19016.0,-2964.0,11694.0,2351.0
-4636.0,-1524.0,13588.0,-1665.0,365.0,3102.0
-2744.0,-688.0,12980.0,-6599.0,-2731.0,-3824.0
-1064.0,-2716.0,12988.0,-7764.0,-14657.0,-4117.0
2592.0,-5152.0,9076.0,-12272.0,-22227.0,-6908.0
11112.0,-7576.0,25436.0,-4654.0,-25146.0,-10086.0
12140.0,-6020.0,17432.0,-9629.0,-23219.0,-7888.0
11616.0,-6988.0,23788.0,-845.0,-3936.0,-8371.0
8572.0,-4360.0,22388.0,8465.0,-523.0,-547.0
12284.0,600.0,19104.0,12256.0,8307.0,1255.0
5032.0,-676.0,20060.0,5657.0,11728.0,999.0
2808.0,-1724.0,22392.0,7410.0,14033.0,2317.0
-80.0,1800.0,21848.0,-2123.0,31026.0,11141.0
-5184.0,1624.0,17300.0,-1453.0,32629.0,6582.0
-10172.0,-1652.0,20708.0,-4813.0,18779.0,5196.0
-7688.0,1292.0,13172.0,1310.0,19924.0,1652.0
-9008.0,1144.0,11328.0,1188.0,1702.0,-1127.0
-9264.0,-1036.0,17008.0,1406.0,6549.0,-107.0
-8916.0,1248.0,5760.0,-1516.0,-10888.0,-1793.0
-4504.0,-1380.0,14772.0,-7406.0,-13965.0,-1105.0
632.0,84.0,6804.0,-18114.0,-20349.0,-4970.0
3112.0,-6432.0,17148.0,-12218.0,-27038.0,-7186.0
8188.0,-8424.0,18416.0,-12221.0,-30025.0,-10601.0
12152.0,-8800.0,18176.0,-9479.0,-29236.0,-11032.0
14176.0,-6504.0,17164.0,-7024.0,-19218.0,-13746.0
14596.0,-6840.0,20872.0,2120.0,-5152.0,-11660.0
12892.0,-4596.0,18824.0,3416.0,8982.0,-5404.0
8852.0,-3228.0,21464.0,6795.0,11664.0,-2765.0
4540.0,-1632.0,18360.0,11286.0,14451.0,4991.0
5260.0,468.0,23700.0,4873.0,32767.0,11646.0
-5296.0,-2100.0,24092.0,3778.0,19500.0,10783.0
8.0,3388.0,18340.0,-1820.0,32767.0,9114.0
-11652.0,-720.0,16352.0,-153.0,17894.0,2077.0
-7968.0,860.0,12784.0,-2217.0,13989.0,2567.0
-9780.0,-540.0,10612.0,-56.0,5714.0,-2802.0
-9548.0,-2096.0,7696.0,-8337.0,-6917.0,-373.0
-4952.0,-3568.0,14416.0,-5700.0,-13065.0,-3346.0
-2892.0,-4084.0,8344.0,-12550.0,-22307.0,-507.0
6472.0,-5372.0,13316.0,-10939.0,-26201.0,-9741.0
12860.0,-10424.0,26856.0,-11434.0,-32768.0,-15044.0
15972.0,-4360.0,15892.0,-2768.0,-26061.0,-10339.0
15220.0,-5576.0,19160.0,-3814.0,-11785.0,-14772.0
8696.0,-7332.0,20332.0,-70.0,-4528.0,-10272.0
8700.0,-4704.0,24160.0,8828.0,9546.0,2871.0
8024.0,-876.0,21904.0,15576.0,24664.0,10290.0
4032.0,132.0,25740.0,5334.0,22635.0,9931.0
1760.0,1024.0,21328.0,6332.0,32767.0,7933.0
-7332.0,-132.0,19980.0,765.0,29464.0,4864.0
-10816.0,16.0,12380.0,-2795.0,18841.0,2904.0
-7844.0,656.0,15128.0,821.0,12717.0,-9.0
-12296.0,-2136.0,8308.0,-1729.0,1121.0,-1382.0
-8032.0,-1208.0,7656.0,-4841.0,-8607.0,-2284.0
-5300.0,-3420.0,12584.0,-2829.0,-15236.0,465.0
-176.0,-1692.0,9520.0,-12378.0,-23682.0,-1603.0
4752.0,-5184.0,11544.0,-10433.0,-32768.0,-7679.0
12356.0,-5780.0,17312.0,-12865.0,-30804.0,-11087.0
13744.0,-11288.0,24396.0,-6599.0,-20658.0,-14701.0
14924.0,-5916.0,18624.0,-4043.0,-9252.0,-6134.0
13012.0,-6700.0,19604.0,4817.0,4036.0,-8864.0
8532.0,-2020.0,18448.0,7131.0,8528.0,-25.0
8056.0,1352.0,16712.0,4382.0,6140.0,-1055.0
6452.0,-2404.0,26792.0,7318.0,18091.0,3088.0
1636.0,-848.0,21716.0,5717.0,22585.0,9648.0
-492.0,1032.0,24552.0,781.0,32767.0,12197.0
-6580.0,-436.0,19648.0,1317.0,31096.0,5978.0
-7176.0,972.0,11352.0,1767.0,22503.0,6745.0
-9384.0,512.0,14400.0,4940.0,11133.0,151.0
-8332.0,760.0,10204.0,-557.0,3517.0,-1362.0
-9648.0,-1532.0,11864.0,-856.0,-7629.0,-4079.0
-7320.0,-884.0,10716.0,-4236.0,-15965.0,2422.0
-3144.0,364.0,12544.0,-3714.0,-15958.0,-2925.0
-1692.0,-3260.0,11288.0,-15714.0,-18398.0,337.0
9264.0,432.0,14652.0,-8783.0,-32768.0,-6066.0
10020.0,-10368.0,26520.0,-12771.0,-30045.0,-9369.0
14064.0,-4512.0,16944.0,-10675.0,-14514.0,-8566.0
9960.0,-5644.0,18616.0,-4885.0,-18316.0,-12372.0
8244.0,-6396.0,18860.0,-6820.0,-5652.0,-7508.0
12244.0,-3556.0,17308.0,1742.0,7846.0,-3277.0
10844.0,-1216.0,13200.0,-3891.0,2019.0,-4833.0
9052.0,-4936.0,20152.0,-37.0,-2738.0,-4440.0
7548.0,-3464.0,18532.0,5875.0,7509.0,1550.0
7608.0,-2580.0,24600.0,15556.0,19859.0,8037.0
8248.0,-268.0,18508.0,10926.0,24122.0,12499.0
4308.0,-200.0,18472.0,11044.0,32767.0,16323.0
-8424.0,372.0,14800.0,8299.0,32767.0,13801.0
-9932.0,5332.0,12992.0,-1524.0,22659.0,8922.0
-11520.0,2820.0,13400.0,7453.0,19707.0,2298.0
-12036.0,4948.0,11588.0,-1207.0,14018.0,-1904.0
-13180.0,1308.0,13116.0,24.0,144.0,-2302.0
-11348.0,3496.0,8016.0,-3872.0,-5040.0,-4063.0
-11932.0,-172.0,8364.0,-2147.0,-9660.0,-938.0
-5296.0,2916.0,7236.0,-16040.0,-17337.0,-4184.0
-2320.0,-2212.0,3308.0,-22281.0,-32768.0,-5589.0
13812.0,-4820.0,20320.0,-18538.0,-32768.0,-19389.0
10028.0,-10032.0,21564.0,-9979.0,-32768.0,-16456.0
17228.0,-6264.0,22020.0,-12622.0,-20125.0,-16097.0
13104.0,-5036.0,18856.0,-3792.0,-11735.0,-16416.0
9676.0,-6148.0,25876.0,4893.0,6337.0,-8763.0
8168.0,-2052.0,18080.0,8429.0,12322.0,-3017.0
4004.0,-2836.0,22808.0,11645.0,13642.0,4910.0
1808.0,-1080.0,22236.0,4707.0,22650.0,13679.0
1636.0,-1716.0,24276.0,9122.0,32767.0,21829.0
-6308.0,-88.0,19728.0,9914.0,32767.0,15003.0
-12040.0,-904.0,16756.0,8727.0,12917.0,10689.0
-8036.0,6196.0,12632.0,5801.0,13856.0,3117.0
-8524.0,6172.0,13064.0,2155.0,14273.0,-1703.0
-11932.0,3296.0,8356.0,884.0,-2608.0,-6262.0
-8764.0,4392.0,3652.0,-10254.0,-14898.0,-6849.0
-5064.0,-408.0,7088.0,-14825.0,-30433.0,-12539.0
-980.0,-6560.0,10676.0,-27394.0,-6548.0,-1548.0
6752.0,-4544.0,15176.0,-5185.0,-29268.0,-10946.0
5440.0,-11764.0,22324.0,-7049.0,-32768.0,-2283.0
15104.0,-3108.0,19040.0,-3482.0,-15593.0,-9693.0
7748.0,-8136.0,23832.0,-766.0,-9413.0,-11355.0
8280.0,-2624.0,18868.0,-5380.0,-42.0,-7141.0
9072.0,-3636.0,21912.0,-351.0,-3749.0,-12127.0
4544.0,-2772.0,22780.0,8835.0,1896.0,-6168.0
4108.0,-1532.0,23972.0,8659.0,12062.0,5335.0
716.0,-1860.0,24208.0,11256.0,24589.0,11776.0
-552.0,788.0,22368.0,4302.0,32767.0,15832.0
-3188.0,668.0,19452.0,460.0,30082.0,12846.0
-6488.0,1164.0,16576.0,4758.0,29545.0,5801.0
-8828.0,3360.0,12884.0,5998.0,11733.0,2065.0
-9396.0,3912.0,11920.0,1284.0,2418.0,-288.0
-9128.0,2152.0,11804.0,-2979.0,1010.0,-4408.0
-8380.0,628.0,9508.0,-7292.0,-6063.0,-2824.0
-5740.0,-900.0,7476.0,-16309.0,-17747.0,-4103.0
-236.0,-3412.0,10948.0,-20190.0,-26345.0,-8407.0
8264.0,-9812.0,24240.0,-16851.0,-31308.0,-8796.0
10968.0,-6420.0,19756.0,-8940.0,-20357.0,-4280.0
9796.0,-6248.0,23408.0,-4488.0,-12556.0,-9156.0
7280.0,-5752.0,19176.0,2292.0,-5316.0,-3624.0
8696.0,-2144.0,22796.0,1814.0,-2002.0,-7051.0
2508.0,-1664.0,22208.0,4028.0,8534.0,-3655.0
1000.0,-2972.0,23904.0,6905.0,12318.0,2887.0
48.0,-1436.0,23648.0,6213.0,23642.0,2162.0
-2396.0,-2728.0,23172.0,3486.0,24023.0,1321.0
-7040.0,-3512.0,20492.0,2826.0,27558.0,6213.0
-8388.0,-884.0,14980.0,7437.0,23148.0,6193.0
-8580.0,976.0,12892.0,2527.0,23034.0,7722.0
-9336.0,2580.0,6384.0,1638.0,17859.0,3911.0
-10844.0,1388.0,4408.0,-2634.0,-352.0,302.0
-8640.0,1840.0,3928.0,-8915.0,-11090.0,-1017.0
-6820.0,-2184.0,1104.0,-21966.0,-32768.0,-4458.0
6196.0,-4832.0,8008.0,-21428.0,-32768.0,-12450.0
8860.0,-13152.0,23892.0,-7288.0,-32768.0,-7056.0
20752.0,-3896.0,15528.0,-13977.0,-26000.0,-14496.0
10752.0,-11680.0,24928.0,-2910.0,-12636.0,-19682.0
10712.0,-3648.0,19928.0,1031.0,4706.0,-8200.0
6228.0,-2288.0,19640.0,10994.0,10438.0,-2845.0
4924.0,-3148.0,25184.0,14600.0,23450.0,4699.0
-644.0,-520.0,18716.0,11403.0,18873.0,10216.0
-1180.0,-1836.0,22940.0,8264.0,26402.0,14818.0
-9240.0,1740.0,19200.0,-1054.0,32767.0,9996.0
-9220.0,1788.0,19640.0,6069.0,19594.0,6741.0
-6724.0,2704.0,19484.0,6151.0,12793.0,3988.0
-6184.0,5176.0,13804.0,-3480.0,18914.0,471.0
-9692.0,3556.0,7404.0,-3042.0,2403.0,-4563.0
-8896.0,2404.0,5996.0,-7204.0,-10649.0,-6823.0
-8424.0,-2324.0,5820.0,-14695.0,-23635.0,-8168.0
-480.0,-1420.0,5056.0,-17611.0,-32768.0,-9069.0
7008.0,-12128.0,22020.0,-14669.0,-32768.0,-10032.0
17496.0,-6972.0,22372.0,-13336.0,-15779.0,-13291.0
13336.0,-7404.0,23136.0,1365.0,-15038.0,-16281.0
11640.0,-3548.0,17864.0,1012.0,-3481.0,-12906.0
6868.0,-3512.0,19568.0,1260.0,1300.0,-9553.0
4236.0,-1872.0,21104.0,6374.0,4851.0,-2124.0
3260.0,-2244.0,23196.0,10432.0,18622.0,5344.0
-2316.0,-2492.0,23740.0,4227.0,29763.0,15689.0
-3608.0,1444.0,23616.0,152.0,32767.0,19493.0
-13428.0,-1852.0,14884.0,4502.0,32767.0,13461.0
-8140.0,540.0,16720.0,2063.0,11115.0,10168.0
-8496.0,4772.0,11112.0,1972.0,15127.0,2779.0
-9772.0,2220.0,10352.0,-4513.0,-2965.0,755.0
-6640.0,3528.0,5800.0,-11665.0,-16885.0,-5786.0
-4336.0,-1764.0,9552.0,-14472.0,-20275.0,-8601.0
2444.0,-2528.0,12192.0,-18088.0,-30329.0,-14783.0
9944.0,-7416.0,19284.0,-15730.0,-27518.0,-21304.0
15328.0,-9040.0,20004.0,-11393.0,-22135.0,-18895.0
14544.0,-6192.0,22244.0,-1054.0,-15708.0,-23125.0
5504.0,-9072.0,21380.0,6065.0,5385.0,-13392.0
5680.0,-340.0,19696.0,5693.0,8137.0,1013.0
3968.0,-4672.0,23560.0,6774.0,17658.0,4096.0
232.0,-3580.0,16624.0,7591.0,21811.0,13327.0
-4156.0,-3212.0,23908.0,-354.0,30353.0,15075.0
-9716.0,-44.0,22200.0,-2162.0,21896.0,22827.0
-7204.0,80.0,18224.0,10161.0,32767.0,15543.0
-10028.0,3436.0,11040.0,5942.0,16644.0,10246.0
-10172.0,4936.0,10876.0,149.0,8941.0,6361.0
-10232.0,5740.0,7728.0,-2531.0,8122.0,-3796.0
-10316.0,3068.0,252.0,1191.0,-16315.0,-6050.0
-4404.0,1760.0,4372.0,-20515.0,-29976.0,-10245.0
5652.0,-1728.0,13460.0,-22550.0,-31144.0,-19903.0
4112.0,-15500.0,21624.0,-23964.0,-32768.0,-19185.0
10220.0,-12336.0,23608.0,-11442.0,-12764.0,-13344.0
7992.0,-8232.0,18140.0,-135.0,-10821.0,-12051.0
7676.0,-6900.0,18996.0,5671.0,-16434.0,-12624.0
6704.0,-3684.0,17432.0,1704.0,1529.0,-8252.0
4080.0,-4648.0,22924.0,5946.0,3117.0,-6244.0
4160.0,-3636.0,20568.0,2562.0,2298.0,-114.0
708.0,-3880.0,23572.0,9320.0,7704.0,4667.0
-1988.0,-4892.0,24648.0,9509.0,19577.0,12757.0
-820.0,-5288.0,20880.0,6380.0,32767.0,21417.0
-8156.0,-3252.0,20660.0,9054.0,32767.0,15561.0
-7724.0,1832.0,16620.0,5018.0,24692.0,8854.0
-8392.0,7284.0,5784.0,3278.0,19468.0,3879.0
-11504.0,3468.0,9124.0,1725.0,6795.0,-2445.0
-11688.0,2944.0,9064.0,366.0,-11260.0,-2633.0
-6936.0,2696.0,13036.0,-5918.0,-10196.0,-4533.0
-11012.0,2008.0,4228.0,-9530.0,-19719.0,-6548.0
-4924.0,-4228.0,18600.0,-10626.0,-20972.0,-4185.0
128.0,52.0,12900.0,-13627.0,-30130.0,-7168.0
572.0,-8020.0,19824.0,-11597.0,-23059.0,-3582.0
8660.0,-4560.0,15512.0,-12970.0,-22284.0,-6241.0
5436.0,-7712.0,17228.0,721.0,-32628.0,-9123.0
12064.0,-4200.0,16204.0,-4006.0,-19041.0,-7829.0
8684.0,-8320.0,21784.0,3370.0,-12000.0,-7266.0
10308.0,-1256.0,14376.0,-2976.0,-10880.0,-1254.0
11124.0,-4920.0,21824.0,3684.0,4603.0,-1442.0
9020.0,1180.0,18940.0,8948.0,27923.0,4320.0
3476.0,-244.0,18660.0,11819.0,32767.0,7571.0
-8740.0,-3588.0,17964.0,1277.0,18602.0,13936.0
-4048.0,-1548.0,18556.0,7613.0,9302.0,21213.0
-8208.0,3200.0,19388.0,12867.0,32767.0,19352.0
-12444.0,9420.0,13132.0,5871.0,32767.0,7741.0
-14932.0,9432.0,10816.0,-321.0,25527.0,3293.0
-13328.0,8224.0,9196.0,2290.0,21346.0,-1026.0
-13460.0,6896.0,4164.0,2479.0,15712.0,-6816.0
-15264.0,4644.0,228.0,2048.0,-1028.0,-4671.0
-12732.0,6696.0,656.0,-5597.0,-23344.0,-11133.0
-12260.0,1256.0,2428.0,-11693.0,-32768.0,-11203.0
-4088.0,1592.0,5372.0,-9098.0,-32768.0,-12191.0
3380.0,-824.0,13460.0,-10143.0,-32768.0,-21061.0
-1776.0,-6332.0,13380.0,-11290.0,-32768.0,-10755.0
15060.0,-4628.0,13692.0,-22164.0,-30214.0,-14914.0
13748.0,-10740.0,18836.0,-14039.0,-22418.0,-17234.0
15884.0,-5336.0,13040.0,-4707.0,-22127.0,-8269.0
14888.0,-5740.0,16812.0,-1668.0,5747.0,-12814.0
10960.0,-6804.0,20044.0,3341.0,10866.0,-1252.0
12796.0,-3032.0,20616.0,12147.0,30633.0,5866.0
7084.0,96.0,16176.0,10294.0,18874.0,12016.0
5084.0,-1728.0,24416.0,10328.0,32767.0,11367.0
-1464.0,-2148.0,15536.0,5989.0,15210.0,18199.0
-3932.0,1096.0,19676.0,11837.0,20897.0,16088.0
-7120.0,4860.0,19664.0,6690.0,21370.0,10226.0
-9972.0,4536.0,18792.0,6716.0,31937.0,5145.0
-10776.0,5640.0,17192.0,4888.0,24442.0,71.0
-10044.0,7500.0,13416.0,-685.0,18548.0,-3542.0
-11656.0,5772.0,7820.0,-2642.0,5349.0,-11697.0
-13388.0,1752.0,7784.0,-1167.0,-13775.0,-11958.0
-12528.0,2668.0,3084.0,-1357.0,-25382.0,-10913.0
-5152.0,-524.0,5252.0,-12289.0,-32768.0,-6111.0
7320.0,-1300.0,16976.0,-5433.0,-32768.0,-18020.0
8328.0,-8360.0,19888.0,-13374.0,-32768.0,-6639.0
15476.0,-3932.0,16436.0,-7403.0,-26795.0,-7798.0
18036.0,-4692.0,20228.0,-4990.0,-18741.0,-14328.0
10836.0,-5392.0,18048.0,-1354.0,-4768.0,-2113.0
12620.0,-1436.0,18164.0,6330.0,1390.0,276.0
9980.0,-1024.0,19328.0,9814.0,2779.0,2442.0
6876.0,-888.0,18368.0,10461.0,-1649.0,11200.0
6900.0,616.0,21308.0,11281.0,25883.0,8809.0
3812.0,1992.0,24568.0,6917.0,21832.0,10752.0
3728.0,2424.0,25844.0,1754.0,27754.0,6663.0
-1776.0,1020.0,20344.0,-3997.0,30569.0,5496.0
-2696.0,1188.0,18884.0,2428.0,27134.0,2316.0
-4860.0,2796.0,14904.0,-2969.0,15573.0,-4547.0
-8112.0,1000.0,12944.0,62.0,12434.0,-11894.0
-11772.0,-1396.0,10764.0,-1157.0,8385.0,-16844.0
-11736.0,-2772.0,8720.0,-5337.0,-4696.0,-10245.0
-7192.0,-2808.0,-480.0,-13636.0,-27010.0,-2444.0
1852.0,-6712.0,14300.0,4878.0,-32768.0,-6927.0
13220.0,-1484.0,24308.0,-4490.0,-32768.0,-5776.0
12808.0,-3236.0,20868.0,-1417.0,-21047.0,-9853.0
12716.0,-12.0,18464.0,282.0,-24916.0,-16534.0
9900.0,-5640.0,22000.0,5135.0,-2906.0,-11694.0
7172.0,400.0,18784.0,13167.0,13976.0,1259.0
4704.0,2512.0,21920.0,14810.0,27719.0,12001.0
1284.0,5068.0,23764.0,2290.0,28270.0,15823.0
-920.0,1708.0,20136.0,-2468.0,29153.0,17442.0
-12136.0,3612.0,13684.0,-2458.0,20926.0,5869.0
-10588.0,1224.0,22748.0,2271.0,16009.0,4306.0
-7780.0,5240.0,15612.0,997.0,19903.0,-4407.0
-9624.0,4236.0,10012.0,-4705.0,-3476.0,-9968.0
-9616.0,1908.0,5540.0,-10122.0,-13799.0,-10058.0
-3112.0,-1504.0,7944.0,-17616.0,-23442.0,-15137.0
4436.0,-3240.0,11308.0,-7951.0,-32768.0,-20097.0
17652.0,-5992.0,18068.0,-9901.0,-32768.0,-17017.0
15396.0,-9576.0,21928.0,179.0,-22956.0,-15913.0
12552.0,-2048.0,17240.0,1548.0,-8248.0,-11479.0
12664.0,-3936.0,20192.0,6825.0,-720.0,-6505.0
7500.0,-2536.0,20292.0,11858.0,9299.0,2638.0
2548.0,-2256.0,27284.0,27410.0,31458.0,17794.0
4568.0,3368.0,16540.0,13754.0,31835.0,21006.0
-184.0,6896.0,18140.0,6778.0,16496.0,13350.0
-6928.0,6516.0,20664.0,232.0,15064.0,8908.0
-6584.0,4100.0,23276.0,-5751.0,19975.0,34.0
-4416.0,7200.0,15980.0,1630.0,11941.0,-3416.0
-5900.0,4344.0,16880.0,-11583.0,20417.0,-7749.0
-8952.0,-356.0,10140.0,-14898.0,8821.0,-6364.0
-8880.0,2328.0,5752.0,-18133.0,-3778.0,-13286.0
-3540.0,-1968.0,7288.0,-9993.0,-16868.0,-19412.0
7280.0,-4348.0,17552.0,-8196.0,-32768.0,-27731.0
9596.0,-12688.0,19692.0,-3049.0,-30899.0,-14990.0
14056.0,-3180.0,17948.0,-9855.0,-26715.0,-15341.0
11784.0,-10040.0,19324.0,-1384.0,-13831.0,-13586.0
10292.0,-4216.0,17780.0,3464.0,-1265.0,-5884.0
7324.0,-5312.0,20328.0,6241.0,224.0,-508.0
4268.0,-6952.0,22168.0,16652.0,3590.0,8294.0
7608.0,-424.0,22384.0,13953.0,31505.0,16067.0
1180.0,-408.0,24372.0,5820.0,15570.0,21150.0
2616.0,-588.0,20768.0,4592.0,32767.0,14893.0
-10644.0,-1588.0,15624.0,-3490.0,30686.0,5631.0
-6792.0,468.0,16152.0,3178.0,8059.0,1531.0
-7640.0,1904.0,13600.0,-2064.0,13758.0,-4985.0
-9512.0,-1180.0,11276.0,2384.0,7560.0,-6916.0
-11832.0,-2740.0,5796.0,-2964.0,-5278.0,-3693.0
-5984.0,-704.0,2776.0,-6643.0,-19051.0,-8389.0
2400.0,-2528.0,9068.0,-12829.0,-32768.0,-16234.0
10736.0,-8884.0,20532.0,-7068.0,-32768.0,-15213.0
19028.0,-456.0,21144.0,-9529.0,-28109.0,-21558.0
11352.0,-7624.0,23224.0,-8728.0,-20666.0,-18266.0
11020.0,-3388.0,15088.0,-2912.0,1036.0,-4694.0
8268.0,-5008.0,21740.0,8638.0,4959.0,-2237.0
8168.0,-4772.0,22536.0,6470.0,5699.0,1082.0
6308.0,-2112.0,17892.0,7915.0,9464.0,7793.0
4520.0,-6136.0,25640.0,11075.0,15670.0,18069.0
556.0,-2524.0,18892.0,4201.0,32767.0,18410.0
-7916.0,-2832.0,20604.0,-5307.0,32767.0,25500.0
-9300.0,-2208.0,16880.0,-602.0,31209.0,6501.0
-8908.0,3576.0,10524.0,1248.0,24324.0,472.0
-10552.0,628.0,11004.0,1865.0,9945.0,-1281.0
-10460.0,668.0,2636.0,-542.0,-6031.0,-8158.0
-8256.0,-1516.0,-1012.0,-12221.0,-29212.0,-13888.0
8120.0,-3976.0,13748.0,307.0,-32768.0,-21708.0
11708.0,-13748.0,32767.0,77.0,-32768.0,-13130.0
13848.0,-1028.0,19832.0,7399.0,-32768.0,-14843.0
10732.0,1468.0,15064.0,-2838.0,-8000.0,-11496.0
6360.0,-4364.0,24992.0,6119.0,4201.0,-1758.0
9952.0,3008.0,18788.0,5721.0,4303.0,1263.0
2876.0,-5580.0,23848.0,8564.0,17060.0,4932.0
2748.0,3032.0,24812.0,7427.0,27989.0,17948.0
-2272.0,1280.0,23512.0,1556.0,22643.0,13189.0
-5260.0,584.0,19872.0,-6416.0,32767.0,12639.0
-13460.0,-576.0,11740.0,-10718.0,32638.0,-963.0
-11812.0,1552.0,12808.0,-666.0,-5372.0,-5518.0
-9616.0,1656.0,7456.0,-5119.0,2150.0,-10716.0
-8576.0,-3188.0,8696.0,-1202.0,-19656.0,-13580.0
-616.0,-2980.0,8640.0,-10087.0,-25216.0,-5334.0
11676.0,-1044.0,15768.0,1958.0,-32768.0,-20698.0
15228.0,-8108.0,22712.0,91.0,-29471.0,-20454.0
9724.0,-5892.0,20944.0,-7866.0,-21319.0,-9160.0
9740.0,-2396.0,17704.0,1057.0,-12192.0,-9212.0
7212.0,-2072.0,21260.0,3834.0,2775.0,-16.0
8568.0,-1248.0,23764.0,5719.0,9427.0,3950.0
7632.0,-3352.0,21960.0,6782.0,22537.0,11700.0
2908.0,-3288.0,26448.0,1562.0,23940.0,18142.0
2652.0,-1796.0,18896.0,-4733.0,32767.0,22718.0
-9588.0,-2352.0,17212.0,111.0,32767.0,14402.0
-12048.0,-248.0,11972.0,-6848.0,16976.0,7387.0
-10056.0,-1484.0,13416.0,5368.0,6197.0,3945.0
-8556.0,616.0,16116.0,1134.0,14764.0,770.0
-8280.0,2572.0,5656.0,-987.0,1724.0,-1438.0
-8720.0,-2116.0,11600.0,-6641.0,-3644.0,-4222.0
-6260.0,-764.0,6992.0,-1622.0,-19779.0,-11407.0
-5832.0,-7604.0,8748.0,-7156.0,-32660.0,-6792.0
7964.0,-1424.0,16648.0,-5905.0,-26364.0,-11418.0
9976.0,-4768.0,19124.0,-4198.0,-32768.0,-15052.0
11464.0,-6684.0,20772.0,-9300.0,-20549.0,-9134.0
10492.0,-2540.0,22788.0,-1278.0,-9019.0,-5123.0
7932.0,-3784.0,20160.0,7818.0,3180.0,-1658.0
8556.0,-3980.0,24680.0,3553.0,5787.0,1236.0
6276.0,-3652.0,25280.0,7523.0,23683.0,8763.0
808.0,-1836.0,23008.0,2837.0,32767.0,15062.0
-6964.0,-1756.0,19380.0,2104.0,29882.0,13149.0
-9744.0,-1932.0,17028.0,-5939.0,32767.0,6649.0
-13012.0,-1248.0,11716.0,2294.0,24574.0,-906.0
-11852.0,-284.0,9972.0,2043.0,10400.0,-5508.0
-11812.0,-2192.0,5400.0,2546.0,-3333.0,-3922.0
-6272.0,-404.0,1852.0,-6723.0,-24446.0,-10641.0
2428.0,-5268.0,9756.0,-2520.0,-32768.0,-16489.0
15256.0,-4044.0,17044.0,-8547.0,-32768.0,-16916.0
20008.0,-6676.0,20536.0,-7905.0,-32768.0,-15235.0
14408.0,-5672.0,20844.0,-4984.0,-7256.0,-3217.0
9852.0,-5992.0,16200.0,10062.0,4694.0,345.0
8708.0,-3192.0,20600.0,6592.0,5903.0,4799.0
7544.0,-1908.0,19592.0,11615.0,10399.0,7928.0
7808.0,48.0,25168.0,5832.0,18659.0,8297.0
-304.0,-4004.0,22268.0,-2339.0,28001.0,9438.0
-3128.0,-4972.0,24772.0,-1540.0,32767.0,17904.0
-9324.0,-2824.0,16216.0,5491.0,32767.0,14217.0
-11068.0,-1116.0,16448.0,2367.0,28772.0,4818.0
-10872.0,2296.0,12116.0,4757.0,25200.0,-1436.0
-11808.0,3276.0,4956.0,1838.0,7476.0,-4557.0
-12104.0,-104.0,5236.0,-428.0,-13236.0,-9030.0
-9256.0,980.0,644.0,7311.0,-32768.0,-14070.0
788.0,-1084.0,8768.0,-10178.0,-32768.0,-18244.0
6088.0,-8468.0,16512.0,-153.0,-32768.0,-15774.0
24392.0,380.0,19752.0,-8536.0,-32768.0,-10424.0
17360.0,-4912.0,18896.0,-10009.0,-17479.0,-9006.0
10672.0,-2512.0,16964.0,-1590.0,-8707.0,-1673.0
9932.0,-2952.0,18000.0,8401.0,-7472.0,3358.0
10732.0,-2152.0,21520.0,15024.0,20571.0,10792.0
6384.0,860.0,23112.0,8341.0,32767.0,15415.0
2276.0,-16.0,23304.0,3201.0,32767.0,19104.0
-6344.0,-3280.0,22312.0,2809.0,32767.0,16207.0
-10780.0,1148.0,17528.0,-2995.0,20037.0,11382.0
-11172.0,2692.0,13944.0,4063.0,22754.0,2593.0
-12616.0,1204.0,11916.0,1171.0,10801.0,-8618.0
-12456.0,-1516.0,9816.0,3361.0,-8437.0,-11635.0
-8132.0,588.0,6856.0,-2247.0,-16777.0,-7083.0
-3960.0,-2480.0,6612.0,-5322.0,-32768.0,-13284.0
8424.0,-2932.0,9272.0,-15707.0,-32768.0,-7234.0
17528.0,-7632.0,23628.0,1526.0,-32768.0,-10454.0
15388.0,-1912.0,15980.0,-8608.0,-14874.0,-5231.0
13896.0,-2904.0,21156.0,-322.0,-5586.0,-5302.0
8620.0,-516.0,18736.0,4059.0,9468.0,-503.0
6328.0,-2612.0,22784.0,6232.0,2805.0,2036.0
4952.0,-2908.0,25908.0,8020.0,7205.0,6505.0
2888.0,-496.0,26028.0,5390.0,32767.0,15728.0
564.0,1168.0,21024.0,-1114.0,32767.0,16118.0
-9628.0,-960.0,15368.0,-2374.0,32767.0,12286.0
-15984.0,-3336.0,14660.0,1551.0,32767.0,2575.0
-13376.0,308.0,7968.0,3390.0,10535.0,-7945.0
-11516.0,-316.0,6708.0,1197.0,-4497.0,-7427.0
-6056.0,2360.0,2164.0,-196.0,-22055.0,-16390.0
428.0,-10032.0,10784.0,-7407.0,-32768.0,-16694.0
14844.0,-5228.0,19596.0,-3187.0,-32768.0,-14565.0
16044.0,-4268.0,22260.0,-7675.0,-32768.0,-10017.0
11376.0,-2420.0,16660.0,-3857.0,-4782.0,-2085.0
10348.0,-1500.0,19008.0,9211.0,3601.0,4214.0
5652.0,-1288.0,21916.0,7528.0,17601.0,5792.0
-268.0,-464.0,21452.0,11187.0,24912.0,10567.0
-1056.0,240.0,26340.0,-181.0,7737.0,5895.0
-5404.0,-3868.0,21500.0,-1298.0,22215.0,8989.0
-9968.0,-4376.0,23732.0,-2408.0,19934.0,5978.0
-11264.0,-3912.0,18720.0,2854.0,12654.0,5441.0
-9764.0,-1472.0,15920.0,-1263.0,6920.0,35.0
-9468.0,16.0,7476.0,1019.0,-8812.0,-10013.0
-5600.0,-804.0,1896.0,-8359.0,-24482.0,-11571.0
9724.0,-1004.0,11504.0,-11556.0,-32768.0,-13895.0
21216.0,-5924.0,13292.0,-17345.0,-32768.0,-15883.0
18652.0,-9484.0,24004.0,-14423.0,-18555.0,-13301.0
10244.0,-3852.0,14800.0,2478.0,-12106.0,-5770.0
12056.0,-2788.0,21836.0,8557.0,8559.0,609.0
4056.0,-2772.0,22916.0,18120.0,13657.0,7955.0
6636.0,-2696.0,23844.0,8272.0,22096.0,11991.0
-2676.0,-1376.0,25156.0,4709.0,32767.0,17261.0
-10716.0,-4696.0,19380.0,1876.0,32767.0,8635.0
-9332.0,-924.0,17460.0,-5746.0,32767.0,1678.0
-12112.0,-1904.0,10408.0,4202.0,14730.0,-8321.0
-11352.0,-2480.0,5768.0,-374.0,-7486.0,-10812.0
-8052.0,-2816.0,1812.0,-8862.0,-17745.0,-9108.0
-36.0,-5692.0,8516.0,6183.0,-32768.0,-15005.0
11552.0,-6340.0,12836.0,-4380.0,-32768.0,-8708.0
20604.0,2060.0,19460.0,3163.0,-32768.0,-22320.0
11544.0,-4004.0,21312.0,1300.0,-20016.0,-10816.0
12380.0,2500.0,18388.0,5460.0,2241.0,1125.0
6940.0,-1368.0,23376.0,9623.0,12121.0,2701.0
5948.0,-948.0,26600.0,8941.0,16254.0,8142.0
3380.0,3884.0,22828.0,5084.0,23761.0,6252.0
-4828.0,-2712.0,26780.0,-3029.0,21970.0,6476.0
-4160.0,-1560.0,23620.0,-10212.0,27543.0,6780.0
-6964.0,-4228.0,17460.0,-1673.0,30682.0,7221.0
-8832.0,-1980.0,13944.0,-2966.0,14616.0,-3970.0
-8896.0,-1200.0,7788.0,-5303.0,-1552.0,-5299.0
-7948.0,-4456.0,6216.0,-15623.0,-6497.0,1321.0
-3596.0,-7020.0,12888.0,-14089.0,-3475.0,4399.0
2268.0,-4952.0,15788.0,-11046.0,-6113.0,5694.0
5408.0,-4508.0,16976.0,-4039.0,-14903.0,-5442.0
5124.0,-4944.0,19484.0,3192.0,-32768.0,-19379.0
6248.0,-3428.0,18932.0,3034.0,-30299.0,-17141.0
9848.0,108.0,19932.0,5896.0,-21882.0,-19366.0
5820.0,-3600.0,23068.0,-1188.0,-15724.0,-12942.0
7616.0,-4580.0,29068.0,1112.0,11423.0,-986.0
3204.0,-5436.0,25400.0,2760.0,32767.0,10411.0
-416.0,-4768.0,25868.0,-9121.0,32767.0,20874.0
-5872.0,-4844.0,18936.0,-2437.0,32767.0,22482.0
-10684.0,-1080.0,12044.0,-8768.0,32767.0,8753.0
-12580.0,-468.0,6728.0,2402.0,30621.0,2805.0
-11620.0,-468.0,2700.0,-5600.0,17125.0,-3405.0
-13556.0,-4152.0,-3288.0,9530.0,-21334.0,-4541.0
-1556.0,-28.0,3612.0,376.0,-32768.0,-12279.0
9468.0,-2664.0,12364.0,-1602.0,-32768.0,-17712.0
13444.0,-7808.0,27712.0,-82.0,-32768.0,-12847.0
15172.0,-1520.0,17432.0,-3738.0,-30858.0,-11235.0
12004.0,-1496.0,19924.0,-3624.0,-10615.0,-10738.0
7068.0,-3920.0,20752.0,7708.0,7192.0,-2001.0
8628.0,-2208.0,23432.0,2082.0,22027.0,8880.0
3160.0,-3100.0,22004.0,8601.0,20779.0,13868.0
-812.0,-580.0,22308.0,-5778.0,32767.0,17650.0
-6712.0,-2200.0,21844.0,68.0,22800.0,13047.0
-8544.0,-1984.0,18180.0,-2673.0,32767.0,17116.0
-14148.0,-3556.0,15492.0,12461.0,32548.0,5048.0
-13744.0,3420.0,5776.0,1286.0,23382.0,-1519.0
-14580.0,2532.0,3432.0,4161.0,928.0,-8771.0
-14916.0,-2680.0,1052.0,2326.0,-14014.0,-3931.0
-5932.0,1460.0,2696.0,-7148.0,-32768.0,-6103.0
9932.0,-640.0,14080.0,-8888.0,-32768.0,-12116.0
14884.0,-9356.0,20092.0,-6529.0,-32768.0,-17067.0
15624.0,-2312.0,18736.0,-8915.0,-32768.0,-15925.0
10912.0,-2560.0,15416.0,-6143.0,-4850.0,-1208.0
11384.0,-596.0,17500.0,9955.0,439.0,-700.0
6528.0,-1768.0,23072.0,9837.0,11000.0,4218.0
6240.0,108.0,23948.0,7313.0,22230.0,9391.0
1096.0,1628.0,21800.0,6658.0,22105.0,11784.0
-3860.0,-1384.0,25756.0,-3813.0,32767.0,14629.0
-9376.0,-1840.0,18040.0,-5538.0,30440.0,10511.0
-10896.0,-784.0,17132.0,1991.0,28784.0,6143.0
-9772.0,2036.0,15756.0,379.0,12786.0,-2152.0
-10048.0,448.0,11812.0,-5185.0,22473.0,-1833.0
-10008.0,988.0,6680.0,1791.0,7980.0,-4930.0
-10492.0,-240.0,-3764.0,-5483.0,-27793.0,-10207.0
3648.0,-300.0,2176.0,-18428.0,-32768.0,-19184.0
11676.0,-7588.0,30500.0,-4829.0,-32768.0,-27463.0
14672.0,-7084.0,16536.0,-17138.0,-32768.0,-13970.0
14244.0,-3016.0,14236.0,-3762.0,-10161.0,-14561.0
7028.0,-7644.0,21904.0,9111.0,1653.0,-7286.0
9208.0,-536.0,16468.0,3795.0,3696.0,4672.0
6008.0,-3640.0,21396.0,8572.0,1825.0,246.0
4480.0,-4824.0,24184.0,8889.0,12738.0,8571.0
6280.0,-2096.0,23752.0,899.0,15203.0,8695.0
512.0,-4124.0,23712.0,3994.0,29041.0,11613.0
-5972.0,-5008.0,22220.0,-741.0,25821.0,9782.0
-7216.0,-3384.0,19296.0,-3466.0,32767.0,10108.0
-8876.0,-3988.0,15444.0,81.0,24430.0,6772.0
-8516.0,-1504.0,13628.0,4275.0,9166.0,-2566.0
-7660.0,2468.0,1632.0,7209.0,-13334.0,-8545.0
188.0,-3372.0,2632.0,-20081.0,-32768.0,-10776.0
10588.0,-6636.0,14716.0,757.0,-32768.0,-21428.0
18928.0,-7108.0,21012.0,-14786.0,-30304.0,-22364.0
10960.0,-7288.0,23324.0,-2916.0,-13638.0,-13565.0
9148.0,-2076.0,16432.0,6409.0,9814.0,520.0
5528.0,-6200.0,23104.0,8988.0,10877.0,5450.0
5172.0,-1856.0,18492.0,8855.0,22925.0,12413.0
-244.0,-2748.0,26760.0,1529.0,32767.0,20949.0
-6796.0,-3912.0,24928.0,-5527.0,19640.0,30746.0
-8544.0,4536.0,15476.0,2421.0,30250.0,16733.0
-13612.0,-24.0,15404.0,4727.0,29448.0,2653.0
-12476.0,2884.0,7464.0,-196.0,11871.0,-3699.0
-11844.0,-644.0,10056.0,3045.0,6287.0,-9923.0
-9576.0,2436.0,236.0,8824.0,-22760.0,-11709.0
1036.0,-3412.0,8616.0,-11937.0,-32717.0,-14854.0
10128.0,-5816.0,19452.0,-6907.0,-32768.0,-13002.0
16356.0,-3056.0,19932.0,-5018.0,-32768.0,-14638.0
8336.0,-3076.0,16600.0,-4545.0,-15535.0,-6832.0
8572.0,-2448.0,20012.0,8420.0,-2328.0,-1793.0
6936.0,-3016.0,24788.0,5104.0,5476.0,-849.0
3096.0,-3516.0,26600.0,8644.0,16274.0,6616.0
1672.0,2664.0,21416.0,7356.0,30913.0,12857.0
-6288.0,-3300.0,28568.0,-2452.0,32767.0,12274.0
-7980.0,-1216.0,19224.0,-4388.0,32767.0,12616.0
-11112.0,-148.0,13824.0,-1438.0,32767.0,1203.0
-12444.0,1176.0,6752.0,-1191.0,10192.0,-7116.0
-11604.0,-996.0,5200.0,514.0,2110.0,-8841.0
-8620.0,-572.0,2248.0,9596.0,-25671.0,-12337.0
316.0,-3192.0,5900.0,-15095.0,-32768.0,-17862.0
7288.0,-5624.0,15832.0,4323.0,-32768.0,-17311.0
21872.0,596.0,17580.0,-9329.0,-32768.0,-16895.0
16392.0,-5100.0,21772.0,-7126.0,-15298.0,-7513.0
10492.0,-2280.0,15812.0,-309.0,-7070.0,-2286.0
8288.0,-6412.0,22604.0,7514.0,10598.0,5586.0
4940.0,-2076.0,19396.0,8790.0,12618.0,13498.0
2760.0,-1468.0,22788.0,12486.0,9709.0,12229.0
6840.0,-3544.0,24892.0,8439.0,5241.0,10412.0
-188.0,-808.0,22096.0,1355.0,32767.0,14576.0
-6924.0,-3300.0,27044.0,-844.0,20646.0,9877.0
-5408.0,172.0,17068.0,-5608.0,31004.0,13086.0
-9972.0,-820.0,14796.0,6978.0,24044.0,487.0
-12692.0,464.0,8772.0,-1378.0,14345.0,-3877.0
-9956.0,992.0,6328.0,1325.0,-6893.0,-8081.0
-5692.0,-708.0,2176.0,-6863.0,-22829.0,-11191.0
3140.0,-3848.0,10576.0,-11560.0,-32768.0,-15623.0
5392.0,-9036.0,18784.0,-15264.0,-32768.0,-7452.0
13772.0,-4884.0,20424.0,-4313.0,-22958.0,-10113.0
11924.0,-4688.0,23436.0,-281.0,-12996.0,-13139.0
6820.0,-3180.0,17708.0,3499.0,4000.0,-6057.0
3608.0,-4176.0,20872.0,9094.0,3038.0,272.0
3332.0,-3108.0,19056.0,1789.0,-267.0,6474.0
1420.0,-3416.0,20516.0,3908.0,12855.0,7460.0
-1268.0,-3132.0,25024.0,-1224.0,31286.0,12925.0
-3732.0,-3208.0,22820.0,-6340.0,17312.0,4369.0
-8064.0,-7944.0,18808.0,-1388.0,23248.0,5497.0
-9088.0,-5676.0,17600.0,2658.0,19312.0,4460.0
-10332.0,-4288.0,15256.0,-2669.0,26482.0,3300.0
-10328.0,-2240.0,8896.0,-1354.0,13735.0,220.0
-9964.0,-728.0,2888.0,-4113.0,-3887.0,-3963.0
-6596.0,-3660.0,7432.0,-3046.0,-17552.0,-7232.0
4764.0,-4424.0,11108.0,-15342.0,-32768.0,-13774.0
7568.0,-6880.0,16276.0,3004.0,-32768.0,-18565.0
11928.0,-6304.0,19844.0,-13011.0,-21491.0,-20076.0
4416.0,-11008.0,23576.0,-3496.0,-8071.0,-9713.0
3660.0,-8712.0,21796.0,10299.0,-570.0,2187.0
6652.0,-6576.0,22232.0,9158.0,3517.0,11263.0
2068.0,-3200.0,18440.0,14622.0,19364.0,12798.0
-5152.0,-4472.0,23624.0,13174.0,2231.0,15813.0
-2780.0,-1836.0,22908.0,4053.0,15439.0,10784.0
-9044.0,-2064.0,19708.0,1138.0,15665.0,5906.0
-9124.0,-2524.0,20980.0,524.0,8963.0,7976.0
-7376.0,-776.0,17436.0,-6841.0,21447.0,2713.0
-8036.0,-1072.0,18660.0,-548.0,20414.0,-1147.0
-6792.0,1456.0,8300.0,-4349.0,-8703.0,-5333.0
-8756.0,-4876.0,11124.0,-6797.0,-82.0,-4429.0
-1384.0,-560.0,12608.0,-6299.0,-19704.0,-8256.0
2468.0,-3112.0,15508.0,-1379.0,-19185.0,-15951.0
8564.0,-2748.0,19056.0,-3527.0,-22295.0,-17400.0
4868.0,-6096.0,23728.0,-860.0,-12268.0,-12618.0
5588.0,-1760.0,19412.0,935.0,-3140.0,-9485.0
-176.0,-9620.0,24392.0,4812.0,4696.0,-2829.0
932.0,-2860.0,20724.0,1326.0,13732.0,7716.0
-4716.0,-5556.0,16556.0,1665.0,12756.0,10613.0
-5648.0,-4364.0,23880.0,-580.0,13696.0,12013.0
-8576.0,-2584.0,18136.0,-6566.0,15602.0,7452.0
-11456.0,-6824.0,20524.0,-3973.0,22201.0,12437.0
-9468.0,-928.0,12472.0,-4737.0,12364.0,6042.0
-9664.0,-3204.0,8480.0,-5249.0,19.0,2271.0
-7000.0,-1800.0,5092.0,-9336.0,-5775.0,-1567.0
1148.0,-3468.0,13836.0,-2156.0,-26652.0,-7436.0
2480.0,-7672.0,22008.0,2598.0,-23484.0,-11551.0
3996.0,-2848.0,20380.0,2943.0,-21327.0,-4588.0
7628.0,-3016.0,26232.0,-1732.0,-11474.0,-11194.0
1616.0,-2784.0,17484.0,10492.0,-6648.0,-6232.0
2480.0,-3532.0,24236.0,5789.0,5605.0,841.0
1032.0,-400.0,21836.0,7178.0,5276.0,3960.0
-4344.0,-1984.0,20876.0,2667.0,18094.0,7516.0
-5868.0,196.0,22012.0,-2691.0,15346.0,8606.0
-7988.0,308.0,17408.0,-3361.0,19298.0,6158.0
-7976.0,-604.0,16432.0,-4563.0,19087.0,4348.0
-8120.0,104.0,15980.0,-2547.0,8760.0,-2893.0
-8988.0,-1504.0,11316.0,-4550.0,4079.0,-3110.0
-7596.0,-2584.0,8716.0,-10815.0,-8357.0,-3853.0
-4716.0,-2788.0,7588.0,-5096.0,-22608.0,-4455.0
4920.0,-564.0,17284.0,-9518.0,-17277.0,-12902.0
6908.0,-3792.0,18156.0,3625.0,-32768.0,-16348.0
10612.0,-6560.0,27356.0,-5468.0,-13157.0,-15604.0
4900.0,-3388.0,18708.0,8023.0,-2680.0,-6189.0
5608.0,-3536.0,25476.0,2597.0,6914.0,589.0
3124.0,548.0,19976.0,10784.0,4210.0,-719.0
-1756.0,-2744.0,22348.0,5761.0,14219.0,1989.0
-1736.0,16.0,21436.0,888.0,26691.0,6189.0
-7008.0,-3644.0,21932.0,2050.0,16327.0,3463.0
-4756.0,1252.0,17288.0,-1670.0,25418.0,1976.0
-11320.0,-4004.0,18748.0,1424.0,27499.0,-1097.0
-10420.0,948.0,9476.0,1825.0,10418.0,-4033.0
-10272.0,-964.0,6068.0,-5626.0,-1536.0,-3631.0
-7044.0,292.0,856.0,394.0,-22266.0,-7702.0
4536.0,-2408.0,7496.0,-14058.0,-32768.0,-14088.0
13752.0,-3324.0,20708.0,-7283.0,-32768.0,-15341.0
15308.0,-5172.0,20648.0,-11924.0,-32768.0,-19284.0
9360.0,-6416.0,23456.0,1149.0,1434.0,-549.0
10432.0,-1620.0,17280.0,2614.0,3846.0,394.0
5528.0,-5544.0,22224.0,6422.0,2257.0,1501.0
4944.0,-4080.0,20480.0,4468.0,9893.0,8928.0
2800.0,280.0,20320.0,5234.0,22851.0,12331.0
-1100.0,-5236.0,24584.0,2492.0,3188.0,10743.0
-2664.0,-1908.0,18100.0,-1464.0,21523.0,12196.0
-7036.0,-5756.0,23304.0,3380.0,32767.0,15236.0
-9960.0,-3232.0,17772.0,-2074.0,22075.0,12645.0
-4640.0,3668.0,13360.0,6869.0,21881.0,8316.0
-10332.0,1256.0,13176.0,2058.0,12384.0,-6409.0
-11536.0,860.0,6140.0,-1865.0,-3718.0,-9376.0
-9332.0,-752.0,9896.0,-2247.0,-11033.0,-11181.0
-2300.0,-476.0,1976.0,-7956.0,-32768.0,-20800.0
5288.0,-7572.0,18972.0,-10074.0,-32768.0,-17183.0
4940.0,-8552.0,22016.0,12049.0,-32768.0,-6402.0
12304.0,1368.0,14568.0,-4729.0,-10552.0,-3306.0
9192.0,552.0,16728.0,2968.0,-8601.0,-9639.0
7084.0,-2940.0,21248.0,-2911.0,-1815.0,-6077.0
3000.0,-6980.0,19088.0,9798.0,6319.0,3929.0
4432.0,-3284.0,25664.0,2722.0,25421.0,15792.0
-188.0,-776.0,19376.0,3779.0,24375.0,16707.0
-168.0,-2432.0,23336.0,-1233.0,19880.0,11370.0
-6420.0,-408.0,20616.0,214.0,14666.0,7618.0
-11868.0,-1960.0,15540.0,-3277.0,12643.0,11639.0
-10656.0,-2200.0,20808.0,2537.0,18018.0,4058.0
-10696.0,664.0,16448.0,-1235.0,20502.0,1010.0
-9864.0,2352.0,12716.0,-2827.0,11624.0,-2919.0
-10352.0,732.0,6524.0,-4057.0,6422.0,-4130.0
-6724.0,2816.0,7116.0,157.0,-7916.0,-13739.0
-5204.0,-764.0,-2560.0,-3375.0,-32768.0,-21032.0
8316.0,-4840.0,17856.0,-11850.0,-32768.0,-24031.0
12464.0,-5536.0,19832.0,-3726.0,-32768.0,-24313.0
10572.0,-7924.0,20980.0,-10359.0,-13178.0,-12758.0
8728.0,-5208.0,19388.0,6043.0,-4889.0,-4792.0
8468.0,-6940.0,19228.0,5921.0,-574.0,-1753.0
7704.0,-3108.0,15836.0,8632.0,-3494.0,1755.0
9428.0,-5140.0,23456.0,7674.0,6584.0,2288.0
5944.0,-2564.0,18668.0,8219.0,1638.0,8773.0
5688.0,-5084.0,25072.0,11388.0,19472.0,11924.0
1120.0,908.0,19904.0,4079.0,30451.0,19816.0
-4564.0,-764.0,21228.0,-3402.0,28179.0,18161.0
-8416.0,-3036.0,20344.0,-4982.0,32767.0,16753.0
-11168.0,-8.0,13052.0,-48.0,31452.0,8482.0
-11932.0,3060.0,9680.0,275.0,14572.0,-2290.0
-14352.0,428.0,5920.0,131.0,-2768.0,-7719.0
-10700.0,1696.0,2896.0,-2502.0,-28938.0,-11350.0
-1252.0,-1424.0,9528.0,-4234.0,-32768.0,-20837.0
8396.0,-4704.0,13244.0,-10371.0,-32768.0,-19609.0
21836.0,-1768.0,15716.0,-13315.0,-32768.0,-28170.0
14492.0,-13620.0,26800.0,-6921.0,-8233.0,-12183.0
12356.0,-2428.0,16132.0,3859.0,5370.0,3629.0
6276.0,-6220.0,23604.0,13389.0,15541.0,15415.0
7436.0,3004.0,17380.0,5905.0,32767.0,25454.0
-7072.0,-4044.0,23304.0,8631.0,32767.0,28191.0
-5764.0,7808.0,17628.0,3009.0,32767.0,20474.0
-17916.0,4028.0,8292.0,6680.0,32767.0,5240.0
-20312.0,2584.0,7512.0,-407.0,22533.0,-3024.0
-14392.0,5260.0,1364.0,2936.0,-743.0,-9273.0
-16480.0,716.0,-2572.0,-6540.0,-21461.0,-11925.0
-8668.0,872.0,792.0,1921.0,-32768.0,-19549.0
296.0,-1328.0,7768.0,-8904.0,-32768.0,-16902.0
8204.0,-5624.0,14148.0,6195.0,-32768.0,-25214.0
13292.0,-5088.0,16004.0,-12192.0,-32768.0,-16146.0
19384.0,-2532.0,18076.0,-5227.0,-22369.0,-10401.0
11336.0,-3068.0,13180.0,8547.0,-6354.0,-4566.0
12656.0,-720.0,19196.0,9663.0,4574.0,3100.0
7924.0,2504.0,11764.0,15018.0,533.0,5503.0
10828.0,-3668.0,32256.0,17008.0,25148.0,14910.0
5128.0,3228.0,23580.0,7172.0,25789.0,21434.0
640.0,5264.0,23876.0,3286.0,32767.0,18261.0
-4632.0,1416.0,21224.0,5263.0,32767.0,15824.0
-8260.0,3340.0,16168.0,315.0,32767.0,3284.0
-8656.0,6108.0,12224.0,8931.0,32767.0,-6962.0
-12340.0,1876.0,6964.0,-621.0,30179.0,-13332.0
-14448.0,716.0,-876.0,2684.0,3476.0,-13429.0
-12312.0,2660.0,-7372.0,-2627.0,-32768.0,-18672.0
-7412.0,-4320.0,4444.0,-2609.0,-32768.0,-19570.0
2416.0,-3376.0,7272.0,-6974.0,-32768.0,-17699.0
8472.0,-7876.0,20420.0,3800.0,-32768.0,-14654.0
19576.0,872.0,13100.0,-11477.0,-32768.0,-8919.0
17364.0,-2248.0,16692.0,-2122.0,-21962.0,-10475.0
13892.0,-5620.0,20940.0,5835.0,-13250.0,-3233.0
13836.0,-1488.0,16676.0,11856.0,977.0,-449.0
10728.0,-5356.0,26104.0,20682.0,16790.0,10689.0
13204.0,2260.0,22836.0,11640.0,27224.0,11763.0
7444.0,1124.0,26264.0,8339.0,32767.0,16771.0
2392.0,3140.0,24128.0,-987.0,32767.0,9689.0
-8728.0,-428.0,15788.0,-5251.0,32767.0,10240.0
-9272.0,1976.0,12468.0,-1228.0,32767.0,-1401.0
-12304.0,132.0,7992.0,3001.0,18665.0,-7844.0
-11200.0,232.0,1548.0,-1502.0,14325.0,-13183.0
-11756.0,96.0,-2556.0,1869.0,-26745.0,-9156.0
-1196.0,-3240.0,-112.0,-7090.0,-32768.0,-18798.0
5876.0,-6708.0,12112.0,-549.0,-32768.0,-18602.0
21064.0,-4824.0,20072.0,-7466.0,-32768.0,-19184.0
12736.0,-5720.0,14304.0,-1689.0,-29857.0,-16056.0
15264.0,-3304.0,17864.0,12058.0,1044.0,-4915.0
10736.0,-156.0,20816.0,17344.0,3983.0,2526.0
13504.0,-2148.0,24280.0,16342.0,22552.0,15627.0
6192.0,4452.0,18508.0,13081.0,32767.0,20719.0
-1828.0,1940.0,24280.0,8788.0,26977.0,20274.0
-3896.0,5580.0,24076.0,-17.0,32767.0,13560.0
-7712.0,4972.0,17328.0,3733.0,32767.0,3600.0
-10712.0,4212.0,13912.0,980.0,32767.0,-6781.0
-12468.0,3728.0,2668.0,-234.0,31263.0,-18160.0
-16336.0,-2692.0,-1896.0,2432.0,-11369.0,-13028.0
-10616.0,-112.0,-1660.0,3182.0,-32768.0,-12529.0
-3812.0,-1492.0,4900.0,-6403.0,-32768.0,-10876.0
4648.0,-4216.0,15428.0,2622.0,-32768.0,-14716.0
12684.0,-1184.0,20092.0,-357.0,-32768.0,-12220.0
15696.0,-284.0,19800.0,-6934.0,-25003.0,-14652.0
7552.0,-2908.0,19572.0,6241.0,-6423.0,-3579.0
8468.0,-112.0,19032.0,4772.0,-4519.0,2987.0
7944.0,-2420.0,24172.0,11404.0,7256.0,7455.0
2696.0,3568.0,18132.0,15336.0,32767.0,17206.0
-3356.0,576.0,28536.0,-2166.0,27358.0,21929.0
-4368.0,3784.0,23100.0,-252.0,32767.0,12979.0
-12032.0,3804.0,13020.0,-3307.0,32767.0,4668.0
-11564.0,2376.0,16412.0,-2110.0,18201.0,-4552.0
-12276.0,1116.0,11080.0,-1511.0,16236.0,-12103.0
-11956.0,280.0,8776.0,4688.0,4822.0,-10713.0
-10800.0,700.0,4348.0,-3547.0,-13737.0,-12395.0
-7648.0,-500.0,3456.0,-157.0,-32768.0,-18507.0
4668.0,-3164.0,4892.0,-2219.0,-32768.0,-20826.0
5692.0,-9316.0,22592.0,3719.0,-32768.0,-11767.0
18972.0,2392.0,16096.0,-3604.0,-32768.0,-9224.0
16952.0,-2796.0,23240.0,1184.0,-6077.0,-5769.0
9520.0,-652.0,16164.0,5849.0,-6417.0,-468.0
9816.0,-3348.0,21292.0,9696.0,4319.0,2662.0
8864.0,-1640.0,23944.0,8295.0,11309.0,5624.0
6908.0,1412.0,23644.0,10152.0,27119.0,14372.0
1468.0,112.0,24864.0,-5719.0,31098.0,19013.0
-4656.0,-504.0,18780.0,392.0,29627.0,14657.0
-11268.0,-1468.0,19900.0,450.0,22912.0,12028.0
-9236.0,2448.0,17068.0,1259.0,21390.0,5349.0
-9732.0,1304.0,14260.0,-4120.0,14337.0,-3316.0
-10476.0,604.0,11520.0,1973.0,16962.0,-7365.0
-9920.0,504.0,8104.0,-4216.0,1601.0,-7735.0
-6644.0,720.0,9204.0,-2093.0,-30607.0,-9389.0
-992.0,752.0,3564.0,-2724.0,-29467.0,-13232.0
7780.0,-7020.0,19776.0,-619.0,-32768.0,-15504.0
11636.0,-1492.0,19092.0,10514.0,-32768.0,-7915.0
15204.0,3020.0,19376.0,-1877.0,-20562.0,-10501.0
10596.0,-248.0,25500.0,8845.0,-6659.0,-6212.0
11228.0,2396.0,23740.0,-7574.0,-1204.0,-6010.0
6276.0,-2268.0,24424.0,-1112.0,8864.0,-3505.0
9960.0,788.0,21076.0,-6282.0,7029.0,-1809.0
6064.0,-2284.0,23156.0,-5968.0,12676.0,1036.0
2956.0,-2528.0,21932.0,-5892.0,26034.0,16760.0
236.0,-1740.0,15320.0,-5522.0,32767.0,22541.0
-11244.0,-3132.0,8236.0,-19185.0,32767.0,3483.0
-9708.0,-472.0,3400.0,5378.0,-17404.0,4597.0
-6152.0,2068.0,8616.0,676.0,-11789.0,-8863.0
-5112.0,-1524.0,5812.0,7187.0,-32768.0,-16923.0
8972.0,-4860.0,15840.0,1049.0,-32768.0,-7957.0
16156.0,3080.0,26188.0,6195.0,-32768.0,-18676.0
10904.0,-2800.0,19248.0,3544.0,-28781.0,-15393.0
6480.0,-3960.0,21724.0,6409.0,5148.0,1812.0
8288.0,2060.0,18776.0,8617.0,-6067.0,3426.0
7968.0,1792.0,21296.0,4965.0,-6747.0,5525.0
8384.0,2760.0,24012.0,7428.0,16175.0,7104.0
8148.0,3656.0,24344.0,3780.0,14914.0,5481.0
6216.0,2396.0,23336.0,-292.0,20543.0,5784.0
-492.0,464.0,19540.0,-4499.0,23235.0,7218.0
-4124.0,1496.0,19276.0,-5390.0,25387.0,6799.0
-4396.0,792.0,14492.0,-12140.0,15949.0,-2933.0
-6444.0,-2204.0,12516.0,-6194.0,5722.0,-7198.0
-3724.0,-2216.0,12600.0,-6489.0,-13578.0,-5312.0
4108.0,808.0,3284.0,-19800.0,-30963.0,-8184.0
17416.0,1496.0,18324.0,-904.0,-32768.0,-19924.0
15328.0,-3680.0,21276.0,-13165.0,-26262.0,-20272.0
8616.0,-5212.0,21336.0,-1927.0,-4725.0,-7627.0
8400.0,-6480.0,26020.0,11341.0,509.0,-197.0
7664.0,-1688.0,18008.0,9115.0,14712.0,9989.0
5044.0,-2520.0,26228.0,15742.0,32767.0,13580.0
-1960.0,1484.0,20988.0,-1613.0,12854.0,15598.0
-2764.0,1540.0,21036.0,2091.0,32013.0,9219.0
-8656.0,-3052.0,19916.0,-642.0,32767.0,7569.0
-8896.0,304.0,14520.0,-8297.0,19209.0,713.0
-7032.0,3284.0,9332.0,-4371.0,3355.0,-7248.0
-9056.0,-1784.0,6204.0,-8699.0,-12101.0,-11410.0
-3664.0,600.0,4160.0,-4961.0,-32768.0,-15980.0
6088.0,-4888.0,13636.0,-8832.0,-32768.0,-19550.0
11924.0,-4784.0,18280.0,6889.0,-32768.0,-10799.0
16792.0,-248.0,18092.0,-8038.0,-19539.0,-7105.0
11252.0,-3172.0,20516.0,6168.0,-11439.0,-5910.0
9632.0,-712.0,19524.0,5325.0,2954.0,3790.0
9836.0,-2416.0,22504.0,5925.0,10202.0,6887.0
8376.0,-1116.0,23652.0,9407.0,13532.0,7869.0
3188.0,-2232.0,22128.0,3082.0,9556.0,8138.0
2260.0,-984.0,25928.0,235.0,24417.0,8658.0
-3200.0,-2048.0,21724.0,-4701.0,32767.0,10954.0
-5576.0,-1308.0,17684.0,-8179.0,32767.0,11480.0
-8640.0,-484.0,13484.0,-7949.0,32767.0,-215.0
-10100.0,-876.0,8744.0,-3131.0,13380.0,-8595.0
-8452.0,-672.0,5944.0,270.0,-14372.0,-10792.0
-4544.0,-1012.0,292.0,5146.0,-32768.0,-20348.0
10004.0,-2184.0,14876.0,3570.0,-32768.0,-16862.0
16032.0,-1648.0,20216.0,7765.0,-32768.0,-12599.0
12596.0,-2280.0,16732.0,-3765.0,-22183.0,-8149.0
12748.0,-3612.0,23364.0,6138.0,-5664.0,-1586.0
9028.0,-2532.0,21212.0,11870.0,12183.0,7889.0
8988.0,1976.0,24280.0,10639.0,29847.0,11512.0
180.0,-2384.0,23572.0,5480.0,17811.0,15353.0
-1260.0,3508.0,23548.0,-3486.0,31271.0,15429.0
-6792.0,-544.0,22752.0,5345.0,28754.0,7099.0
-9204.0,456.0,17652.0,-6568.0,32575.0,2870.0
-9468.0,60.0,14668.0,-2362.0,24615.0,-1932.0
-8596.0,1468.0,10760.0,-4371.0,12433.0,-6937.0
-9188.0,-1240.0,7776.0,-2280.0,9049.0,-9313.0
-8828.0,-984.0,-196.0,-1505.0,-27255.0,-9499.0
-456.0,-3680.0,9148.0,-5995.0,-32768.0,-15677.0
4344.0,-2404.0,11836.0,7893.0,-32768.0,-11621.0
13204.0,-920.0,26716.0,5990.0,-31749.0,-8292.0
10856.0,220.0,20524.0,2439.0,-24295.0,-5440.0
11264.0,-1560.0,24432.0,10016.0,-1182.0,2658.0
8788.0,1400.0,24196.0,8024.0,18778.0,7363.0
3548.0,1944.0,23592.0,6944.0,20851.0,9098.0
-428.0,3884.0,22712.0,-3907.0,21470.0,12252.0
-6116.0,1808.0,22208.0,-2975.0,32767.0,9260.0
-11004.0,896.0,18392.0,-5257.0,30165.0,3151.0
-11324.0,508.0,13028.0,-4413.0,25358.0,-2203.0
-10348.0,636.0,11024.0,-2225.0,4635.0,-9302.0
-9768.0,-1652.0,4696.0,-1129.0,-9586.0,-10982.0
-5548.0,1232.0,3732.0,-5297.0,-32768.0,-12796.0
4136.0,-1956.0,6940.0,-2524.0,-26098.0,-22161.0
20444.0,1112.0,22828.0,-2313.0,-32768.0,-20973.0
14216.0,-5100.0,21164.0,-1471.0,-32642.0,-17260.0
11908.0,-3532.0,19892.0,2825.0,-647.0,-54.0
9432.0,-744.0,18920.0,4970.0,1666.0,5499.0
9732.0,-3344.0,22168.0,11524.0,-1598.0,4338.0
6992.0,-1480.0,26548.0,8068.0,18832.0,11433.0
5292.0,2752.0,27304.0,6052.0,32767.0,10488.0
-1428.0,-1784.0,28024.0,-7756.0,32767.0,13524.0
-5012.0,668.0,18744.0,-5409.0,32767.0,13206.0
-9668.0,-4.0,12228.0,2465.0,32767.0,2159.0
-11940.0,1548.0,8916.0,-6921.0,32767.0,-5074.0
-9712.0,-112.0,3256.0,-1004.0,12733.0,-6058.0
-8668.0,1608.0,-3424.0,3521.0,-32768.0,-10899.0
3312.0,-3140.0,9860.0,-9521.0,-32768.0,-17259.0
8352.0,-7116.0,20396.0,-4942.0,-32768.0,-14572.0
14832.0,-940.0,20472.0,-54.0,-32768.0,-11293.0
15148.0,-1108.0,16732.0,-4558.0,-23850.0,-10590.0
11140.0,-5116.0,20260.0,15661.0,-2160.0,-6996.0
17104.0,-1160.0,25320.0,9164.0,17310.0,6582.0
6644.0,-888.0,19068.0,11082.0,32767.0,10581.0
1644.0,-424.0,24904.0,2585.0,30119.0,15293.0
-4800.0,1192.0,21060.0,-1443.0,32767.0,15223.0
-9520.0,864.0,18164.0,6096.0,32767.0,8946.0
-13048.0,420.0,10740.0,-763.0,32767.0,2777.0
-16276.0,1920.0,6288.0,769.0,16895.0,-6333.0
-12864.0,792.0,2752.0,1586.0,-11630.0,-7412.0
-11732.0,364.0,1888.0,2910.0,-21449.0,-6094.0
-7528.0,324.0,140.0,-11088.0,-32768.0,-8287.0
6748.0,-3136.0,9672.0,-6651.0,-32768.0,-15761.0
22216.0,3432.0,25048.0,5503.0,-32768.0,-24137.0
14720.0,-4328.0,17404.0,-12059.0,-24923.0,-9113.0
14428.0,-964.0,19708.0,7065.0,239.0,-3728.0
7652.0,-2608.0,19080.0,5366.0,7331.0,3237.0
8184.0,32.0,18284.0,12448.0,21119.0,10057.0
4796.0,1940.0,22472.0,4647.0,25845.0,13659.0
-352.0,2728.0,21036.0,5702.0,26386.0,13321.0
-5344.0,968.0,24964.0,4128.0,32767.0,8649.0
-9972.0,3240.0,18924.0,-899.0,32767.0,5952.0
-10788.0,3516.0,13784.0,-5567.0,32767.0,-3411.0
-12128.0,3408.0,5932.0,-2449.0,16031.0,-13167.0
-12620.0,-876.0,4140.0,1195.0,-6506.0,-13818.0
-8004.0,-84.0,4860.0,-1503.0,-32768.0,-15151.0
156.0,-940.0,6436.0,467.0,-32768.0,-15150.0
12528.0,-952.0,21120.0,7857.0,-32768.0,-15612.0
20264.0,5516.0,15980.0,-6503.0,-32768.0,-13589.0
15448.0,-2640.0,19908.0,-238.0,-11608.0,-9181.0
9124.0,-2148.0,18948.0,9744.0,2044.0,3818.0
11712.0,-1224.0,24588.0,6498.0,10082.0,10892.0
7092.0,1048.0,21960.0,12907.0,32767.0,18678.0
120.0,2648.0,22452.0,-710.0,25088.0,20322.0
-4088.0,2900.0,22348.0,-3479.0,30141.0,19799.0
-9836.0,3124.0,18584.0,2601.0,32767.0,12349.0
-13896.0,2788.0,11536.0,3474.0,32767.0,1180.0
-13452.0,3964.0,5964.0,-11028.0,24287.0,-11707.0
-12084.0,-120.0,3884.0,4250.0,-1710.0,-14415.0
-8948.0,152.0,2524.0,-4346.0,-17849.0,-15893.0
-6524.0,-3648.0,3608.0,3986.0,-32768.0,-19694.0
4648.0,-1488.0,9492.0,2548.0,-32768.0,-15938.0
11000.0,-3336.0,25780.0,19650.0,-32768.0,-15265.0
15192.0,4376.0,19392.0,7131.0,-32768.0,-8171.0
14604.0,-1812.0,24224.0,3715.0,-428.0,-1080.0
8128.0,-64.0,21876.0,11908.0,7094.0,9188.0
5412.0,560.0,24636.0,8574.0,9709.0,17094.0
3296.0,3576.0,22048.0,5867.0,16078.0,14812.0
-284.0,4472.0,25752.0,1625.0,19165.0,8495.0
-5876.0,2956.0,23928.0,-5812.0,25376.0,6872.0
-4824.0,1720.0,20028.0,-1043.0,32767.0,3564.0
-7532.0,1940.0,17640.0,-6342.0,32767.0,-3262.0
-9484.0,1368.0,12260.0,-8394.0,31637.0,-7493.0
-10376.0,544.0,5976.0,597.0,4120.0,-12079.0
-8808.0,1016.0,3208.0,-2556.0,-23363.0,-15234.0
-4040.0,-300.0,632.0,-998.0,-32768.0,-18902.0
10680.0,-4520.0,20096.0,9517.0,-29504.0,-21631.0
16012.0,3616.0,18676.0,5388.0,-32768.0,-15272.0
11152.0,-6504.0,21492.0,-1340.0,-21755.0,-5468.0
10848.0,-492.0,17424.0,9964.0,-3582.0,-1760.0
9388.0,-40.0,20492.0,7190.0,6521.0,8876.0
8644.0,496.0,19732.0,11214.0,3573.0,8460.0
6536.0,-544.0,27216.0,4801.0,11226.0,8710.0
5400.0,624.0,26996.0,3146.0,27675.0,8130.0
-560.0,1652.0,21676.0,-5645.0,32767.0,10764.0
-3408.0,-160.0,21572.0,-3891.0,32767.0,6578.0
-6400.0,2064.0,14548.0,-3414.0,32767.0,943.0
-11432.0,724.0,10496.0,-2888.0,31334.0,-11318.0
-13304.0,-1136.0,1760.0,-2362.0,5911.0,-10248.0
-8628.0,-588.0,-168.0,-1482.0,-32768.0,-15880.0
8140.0,-732.0,5492.0,-8187.0,-32768.0,-18172.0
22824.0,3308.0,22860.0,6785.0,-32768.0,-26704.0
15244.0,-7508.0,19568.0,-4654.0,-32768.0,-17612.0
11064.0,-2836.0,20032.0,6741.0,-793.0,-381.0
7636.0,-3232.0,19892.0,13290.0,9705.0,3393.0
8512.0,-4572.0,25720.0,9513.0,13294.0,12692.0
3860.0,956.0,24164.0,3833.0,15389.0,15102.0
3208.0,832.0,27228.0,3945.0,28281.0,14670.0
-4820.0,-1596.0,21856.0,-176.0,22779.0,11152.0
-5556.0,564.0,20472.0,5468.0,30502.0,9206.0
-10808.0,1732.0,12548.0,989.0,28343.0,-178.0
-12004.0,688.0,11528.0,214.0,11029.0,-7019.0
-9796.0,1696.0,6148.0,38.0,-7065.0,-11926.0
-7588.0,-1000.0,9152.0,-589.0,-17568.0,-14168.0
-2952.0,-1472.0,5388.0,-1677.0,-32768.0,-15103.0
12056.0,-936.0,15916.0,-7345.0,-32768.0,-16652.0
21520.0,3476.0,16912.0,-16202.0,-32768.0,-17921.0
16452.0,-952.0,19200.0,-12173.0,-2095.0,-8439.0
12544.0,1040.0,14516.0,2540.0,-6960.0,-3795.0
11392.0,-9536.0,29048.0,-1299.0,-9868.0,676.0
10432.0,-1748.0,16748.0,16590.0,16715.0,6956.0
3016.0,-1692.0,23496.0,5833.0,24663.0,14372.0
3804.0,-2380.0,26076.0,-1474.0,32767.0,18043.0
-3668.0,-2448.0,22064.0,3511.0,27549.0,10232.0
-7440.0,428.0,12260.0,-3287.0,32767.0,2009.0
-11204.0,-760.0,11208.0,4018.0,8213.0,-5250.0
-8924.0,960.0,7472.0,58.0,-17825.0,-8848.0
-3116.0,-896.0,3284.0,-4826.0,-32768.0,-9345.0
15460.0,-1576.0,19264.0,-8664.0,-27673.0,-15752.0
18772.0,2980.0,13904.0,-9932.0,-32768.0,-15589.0
7016.0,292.0,6716.0,-5162.0,-27708.0,-7295.0
15028.0,-5840.0,22224.0,6934.0,8327.0,0.0
11680.0,2640.0,14728.0,-364.0,-2229.0,3581.0
6172.0,-3788.0,18872.0,5281.0,-6757.0,-2210.0
3216.0,-4260.0,14516.0,15506.0,3866.0,2618.0
11336.0,-5808.0,27288.0,11726.0,22274.0,14222.0
9736.0,-484.0,26320.0,8364.0,21541.0,7796.0
4348.0,-600.0,24464.0,-1858.0,18715.0,6050.0
-1692.0,-812.0,18388.0,-10851.0,32767.0,9774.0
-5044.0,-1324.0,15424.0,-5477.0,28733.0,4243.0
-7444.0,-1088.0,13312.0,-6176.0,19664.0,-2751.0
-8384.0,-2656.0,11408.0,-2824.0,2038.0,-7850.0
-5996.0,-4636.0,13556.0,-1908.0,1486.0,-5607.0
-1108.0,-1656.0,9620.0,-1950.0,-26211.0,-10421.0
-368.0,-7528.0,9636.0,-9037.0,-32768.0,-8556.0
11524.0,-3376.0,14316.0,-2510.0,-32768.0,-9248.0
12764.0,-5868.0,20628.0,-12719.0,-32768.0,-9366.0
13152.0,-1184.0,13116.0,-3178.0,-17077.0,-9107.0
12204.0,-6624.0,20172.0,6805.0,-16684.0,-12252.0
14108.0,-2636.0,16832.0,6855.0,-8821.0,-6368.0
14876.0,-6048.0,23668.0,11800.0,13288.0,-879.0
8988.0,-6560.0,20416.0,14986.0,20793.0,9751.0
8392.0,-2028.0,21572.0,-2177.0,32767.0,12026.0
5848.0,-1616.0,20980.0,-2942.0,27296.0,8084.0
-1588.0,-3208.0,15268.0,-9705.0,30195.0,9213.0
-2300.0,-3196.0,17640.0,-3870.0,28793.0,7169.0
-5584.0,-1536.0,13824.0,-2899.0,29432.0,-1890.0
-9036.0,-3668.0,9552.0,-5849.0,13654.0,-5954.0
-8644.0,-3752.0,7060.0,358.0,-19900.0,-8510.0
1620.0,-888.0,6716.0,-4409.0,-32768.0,-16699.0
5828.0,-8372.0,16496.0,9766.0,-32768.0,-16223.0
21920.0,2176.0,15648.0,-10673.0,-32768.0,-10658.0
16640.0,-4596.0,22856.0,1112.0,-15973.0,-8400.0
8452.0,-592.0,12524.0,14493.0,-3045.0,-4935.0
7260.0,-2284.0,16572.0,8030.0,-10771.0,2894.0
14228.0,-1488.0,18488.0,8541.0,-3252.0,675.0
13456.0,-2320.0,22572.0,10603.0,-611.0,-851.0
14380.0,880.0,20752.0,5876.0,13702.0,2963.0
8696.0,-1412.0,21484.0,-1881.0,18638.0,3457.0
7332.0,-1656.0,20852.0,-4084.0,26510.0,5465.0
2916.0,-2044.0,20396.0,-10046.0,32767.0,8499.0
-1028.0,-2048.0,18656.0,-4629.0,32767.0,7588.0
-3720.0,-472.0,14148.0,-9026.0,24506.0,2176.0
-6724.0,-4332.0,15972.0,-5485.0,17330.0,-2067.0
-7136.0,-3548.0,14188.0,3341.0,-5383.0,-1046.0
-2336.0,2000.0,5844.0,-694.0,-32768.0,-8429.0
6516.0,-2724.0,12096.0,-8492.0,-32768.0,-17002.0
19960.0,-3508.0,21604.0,-6035.0,-32768.0,-18308.0
10784.0,-2556.0,13464.0,-8904.0,-32768.0,-14213.0
14808.0,-5140.0,19780.0,2483.0,-1472.0,-10546.0
8496.0,-4532.0,16988.0,14667.0,-9563.0,-5855.0
13348.0,-1404.0,17200.0,6477.0,1207.0,2802.0
13352.0,-1656.0,18724.0,11000.0,6544.0,2811.0
10200.0,-3988.0,23384.0,6808.0,8352.0,1827.0
7440.0,-1876.0,23216.0,-203.0,32767.0,10335.0
2620.0,-2076.0,22588.0,-6727.0,32767.0,12733.0
-3224.0,-2340.0,16288.0,-3041.0,32767.0,7997.0
-4020.0,-2096.0,14488.0,-5420.0,12065.0,-288.0
-4340.0,-2540.0,8964.0,-612.0,-7324.0,-1067.0
744.0,-616.0,5804.0,-8155.0,-32768.0,53.0
13908.0,3052.0,13080.0,-8077.0,-32768.0,-14553.0
15760.0,-1612.0,14752.0,-8668.0,-32768.0,-16714.0
17472.0,-4688.0,20596.0,-6002.0,-16873.0,-8188.0
14352.0,-1716.0,14776.0,8782.0,-4371.0,-8168.0
12788.0,-2948.0,19816.0,10318.0,6145.0,-2295.0
17004.0,-2572.0,24140.0,5099.0,27597.0,3439.0
8296.0,-2916.0,19904.0,4380.0,25787.0,5661.0
3076.0,-5596.0,24116.0,-4669.0,32767.0,13417.0
-2116.0,-3940.0,21820.0,-3631.0,32767.0,12257.0
-4744.0,-372.0,15140.0,-915.0,29125.0,3437.0
-6332.0,160.0,13764.0,-4809.0,23234.0,-4560.0
-6768.0,-2224.0,15188.0,-4300.0,6808.0,-5819.0
-6900.0,-3676.0,13936.0,-552.0,4317.0,-1949.0
-4704.0,-2948.0,11912.0,-1462.0,-8925.0,-1438.0
-1032.0,-988.0,7636.0,-1008.0,-32768.0,-1958.0
7992.0,-3104.0,13248.0,-7194.0,-32768.0,-2571.0
10884.0,-468.0,15896.0,718.0,-32768.0,-5736.0
15808.0,-264.0,18356.0,-9916.0,-27326.0,-8981.0
13076.0,-2008.0,19876.0,-434.0,-24232.0,-7343.0
17656.0,-3496.0,22088.0,-2455.0,-7237.0,-7800.0
9928.0,-5372.0,17936.0,-5040.0,-8529.0,-5737.0
15712.0,-5256.0,17408.0,-10860.0,-1488.0,-903.0
11564.0,-9296.0,18572.0,-3433.0,-377.0,-2761.0
14440.0,-8424.0,21676.0,-2139.0,17942.0,11436.0
13676.0,-6432.0,20984.0,2945.0,32767.0,14429.0
7080.0,-3240.0,15624.0,1251.0,32767.0,14999.0
1672.0,-1264.0,15536.0,-10162.0,32767.0,-16.0
-6400.0,-3912.0,10180.0,2354.0,5420.0,3023.0
-4504.0,-2336.0,9084.0,3167.0,-12156.0,-2218.0
-2372.0,-3916.0,9816.0,9239.0,-32768.0,-5864.0
9400.0,-800.0,12488.0,-1531.0,-32768.0,-10356.0
16252.0,-868.0,16656.0,-168.0,-32768.0,-15114.0
13696.0,-5572.0,20924.0,-4950.0,-18348.0,-5638.0
11348.0,-3056.0,15888.0,-1816.0,-11182.0,328.0
11656.0,-1684.0,17944.0,4892.0,-2909.0,-631.0
11176.0,-2576.0,19956.0,5109.0,10649.0,3588.0
7796.0,-3620.0,19372.0,9181.0,4821.0,2558.0
8148.0,-4972.0,24404.0,1840.0,7616.0,5335.0
4688.0,-3792.0,17944.0,-4701.0,20033.0,6781.0
4728.0,-5292.0,24132.0,-1651.0,17633.0,5975.0
3028.0,-1936.0,17988.0,-1197.0,22228.0,4200.0
868.0,-2788.0,16712.0,-4087.0,6296.0,1561.0
1572.0,-3628.0,19604.0,-2678.0,9981.0,611.0
784.0,-2572.0,17908.0,-519.0,6938.0,207.0
20.0,-2648.0,15216.0,-3323.0,4195.0,1371.0
1000.0,-1804.0,13924.0,-377.0,-3200.0,-1785.0
3288.0,-596.0,5868.0,-6791.0,-32768.0,-6980.0
15836.0,-2960.0,16252.0,-8445.0,-23653.0,-15844.0
15340.0,-5720.0,17548.0,-15951.0,-24399.0,-10304.0
14852.0,-7320.0,22696.0,-1894.0,-14697.0,-8185.0
10112.0,-3644.0,15316.0,9159.0,-3432.0,-1855.0
11100.0,-6028.0,21828.0,6031.0,9641.0,4176.0
7704.0,-4736.0,20516.0,7962.0,2122.0,6904.0
8344.0,-3908.0,21144.0,8607.0,26500.0,8396.0
2156.0,-3492.0,17568.0,-2316.0,28550.0,9650.0
2884.0,-2384.0,19340.0,-1333.0,28018.0,5573.0
-312.0,-2088.0,17312.0,-3421.0,13721.0,-2532.0
-1756.0,-4128.0,17748.0,-766.0,6891.0,-3381.0
-956.0,-2956.0,12696.0,-4194.0,-6342.0,-2698.0
2388.0,-4112.0,18848.0,-1210.0,-3403.0,-2198.0
3080.0,-2704.0,18448.0,415.0,-1505.0,-2620.0
2192.0,-3736.0,18560.0,492.0,-3142.0,-1087.0
688.0,-2916.0,17152.0,2358.0,-4191.0,-1138.0
-1752.0,-3192.0,16768.0,622.0,-3824.0,-1044.0
96.0,-5408.0,23908.0,3897.0,-5027.0,1296.0
4468.0,-3056.0,25404.0,-35.0,-528.0,3483.0
3076.0,-1668.0,20404.0,-400.0,7987.0,4622.0
2652.0,-3748.0,23020.0,-1448.0,12218.0,6019.0
-1740.0,964.0,14888.0,-4823.0,23911.0,6662.0
-8424.0,-3612.0,15948.0,-2983.0,20834.0,3349.0
-11664.0,-896.0,10368.0,2709.0,3324.0,-1954.0
-9836.0,-3408.0,19964.0,-1259.0,-3210.0,-4839.0
-6504.0,-1528.0,13212.0,551.0,-16214.0,-4065.0
-320.0,680.0,-564.0,-5539.0,-32768.0,-9134.0
20436.0,496.0,11496.0,-10532.0,-32768.0,-20658.0
20024.0,-8304.0,22456.0,-13576.0,-23427.0,-14362.0
14204.0,-4204.0,16932.0,-2194.0,-15844.0,-9739.0
15544.0,-5480.0,22044.0,7488.0,-3885.0,-5903.0
13252.0,-520.0,18108.0,8767.0,6119.0,3335.0
13780.0,-4224.0,27032.0,10787.0,29364.0,6020.0
5368.0,-2776.0,22340.0,628.0,26207.0,16355.0
5784.0,-456.0,19652.0,-10128.0,32767.0,13839.0
-6488.0,-3276.0,15288.0,366.0,32767.0,-2100.0
-8720.0,-2492.0,11808.0,-6475.0,3894.0,-6562.0
-4788.0,-3396.0,11500.0,1896.0,4356.0,-8530.0
-2992.0,-1768.0,3700.0,1861.0,-32768.0,-11342.0
14032.0,-4308.0,13000.0,-8536.0,-32768.0,-9933.0
23788.0,1316.0,13144.0,-13778.0,-32768.0,-16972.0
16176.0,-8600.0,20296.0,-12550.0,-17591.0,-5898.0
14200.0,-3904.0,11680.0,4549.0,-3211.0,-2687.0
15968.0,-6616.0,21744.0,7394.0,2580.0,-1976.0
11576.0,-3764.0,18124.0,10309.0,13105.0,1728.0
10640.0,-7432.0,28276.0,8409.0,15452.0,6846.0
5344.0,-2204.0,19432.0,-264.0,32767.0,11232.0
-1876.0,-8416.0,25884.0,-4598.0,32767.0,11337.0
-6144.0,-3992.0,12720.0,-2531.0,22588.0,4112.0
-6764.0,-2736.0,11272.0,-1603.0,3150.0,-2284.0
-4772.0,-3576.0,6688.0,-1226.0,-3850.0,-4168.0
4360.0,-2208.0,2504.0,-12084.0,-32768.0,-10785.0
19296.0,-1684.0,13304.0,-11646.0,-32768.0,-17561.0
20248.0,-6108.0,15432.0,-14840.0,-32768.0,-11639.0
17008.0,-6468.0,17296.0,-2999.0,-14437.0,-7721.0
14852.0,-6824.0,15032.0,4795.0,-5619.0,-5569.0
12732.0,-6160.0,19028.0,16384.0,8480.0,-1658.0
12812.0,-7376.0,24844.0,13998.0,9435.0,5921.0
10152.0,-1912.0,19052.0,12680.0,32767.0,8947.0
3960.0,-2476.0,22948.0,2453.0,32767.0,10255.0
-6020.0,-6804.0,20696.0,-3215.0,32767.0,6959.0
-7684.0,-792.0,9716.0,-9083.0,29635.0,-6467.0
-6368.0,-2320.0,11220.0,924.0,-237.0,-8495.0
-6740.0,-5204.0,-1036.0,2356.0,-32768.0,-13560.0
9092.0,-5136.0,6904.0,-2614.0,-32768.0,-14347.0
26712.0,3980.0,12824.0,-6240.0,-32768.0,-13632.0
22356.0,-3668.0,13364.0,-14084.0,-19860.0,-8634.0
15476.0,-6388.0,16752.0,9285.0,-3049.0,-2752.0
17224.0,-3232.0,16768.0,11258.0,8032.0,7547.0
15176.0,-5712.0,26608.0,24089.0,32767.0,14679.0
6988.0,3988.0,16800.0,4955.0,32767.0,19333.0
-5576.0,-3352.0,23196.0,2310.0,32767.0,15347.0
-9568.0,-1856.0,17176.0,-2139.0,32647.0,2098.0
-11232.0,-2580.0,13960.0,-6389.0,24782.0,-7405.0
-9856.0,-948.0,11068.0,2437.0,-799.0,-11609.0
-7492.0,-3132.0,10812.0,-3031.0,1228.0,-10170.0
-8296.0,-4720.0,-1480.0,528.0,-32768.0,-15436.0
10304.0,-5576.0,12712.0,-1958.0,-32768.0,-12049.0
18720.0,-1376.0,9448.0,2276.0,-32768.0,-11644.0
19820.0,-8852.0,22024.0,-2578.0,-22119.0,-7050.0
17920.0,-84.0,13020.0,3676.0,-922.0,-2468.0
12736.0,-2744.0,19108.0,9374.0,6328.0,229.0
10264.0,-2456.0,25124.0,9053.0,28471.0,13227.0
4292.0,-2064.0,23548.0,508.0,32767.0,23241.0
-5224.0,-2644.0,20456.0,-3698.0,32767.0,16811.0
-11028.0,-3388.0,20860.0,1944.0,23031.0,8937.0
-11416.0,-3872.0,18276.0,-1423.0,29132.0,-373.0
-10024.0,408.0,11144.0,7541.0,11909.0,-14795.0
-10808.0,-3640.0,12516.0,-1156.0,2582.0,-12903.0
-7832.0,-2392.0,7644.0,4235.0,-14653.0,-10023.0
-1340.0,-2000.0,7752.0,-5625.0,-29766.0,-13525.0
5164.0,-5956.0,8080.0,5027.0,-32768.0,-16106.0
24716.0,280.0,15276.0,-4353.0,-32768.0,-13140.0
17964.0,-4696.0,12016.0,-4478.0,-31585.0,-6177.0
19640.0,-2608.0,14044.0,-879.0,-9765.0,-3139.0
15096.0,-1728.0,13904.0,12511.0,-1243.0,941.0
17680.0,-4472.0,25264.0,11845.0,27784.0,12822.0
7676.0,-4912.0,23780.0,20014.0,32767.0,23417.0
1720.0,524.0,22592.0,-453.0,32767.0,20618.0
-7668.0,-1584.0,19368.0,7904.0,32767.0,14875.0
-9136.0,36.0,16368.0,-1872.0,32767.0,-1276.0
-12052.0,-1224.0,10824.0,2345.0,22244.0,-7954.0
-9108.0,1792.0,4068.0,-100.0,-3010.0,-15183.0
-11840.0,-7604.0,4036.0,-659.0,-27381.0,-16374.0
3344.0,-1744.0,3896.0,11785.0,-32768.0,-13988.0
12740.0,-6408.0,20348.0,7123.0,-32768.0,-11442.0
18768.0,2308.0,11636.0,4700.0,-32768.0,-3437.0
17868.0,964.0,16044.0,-2613.0,-14211.0,-5605.0
11016.0,-1040.0,16992.0,6989.0,-22435.0,-1124.0
16976.0,36.0,22172.0,2480.0,-5498.0,2341.0
13684.0,-80.0,23368.0,10030.0,11449.0,697.0
10636.0,-468.0,27372.0,-1144.0,31570.0,7628.0
6384.0,-2316.0,26536.0,-7866.0,32767.0,9285.0
-448.0,-4508.0,20164.0,-12472.0,32767.0,16233.0
-6564.0,-4300.0,14748.0,-9229.0,32767.0,8907.0
-10140.0,-220.0,5868.0,8647.0,15326.0,-11677.0
-8292.0,-1876.0,5812.0,-5153.0,-16734.0,-12057.0
-3788.0,-6900.0,3720.0,7758.0,-32768.0,-11889.0
10988.0,-3792.0,9176.0,-2663.0,-32768.0,-9545.0
21140.0,732.0,12080.0,8915.0,-32768.0,-11514.0
23352.0,-1280.0,18248.0,-8694.0,-21801.0,-5318.0
15072.0,48.0,14300.0,8976.0,-11188.0,-5600.0
13972.0,-1744.0,20476.0,10136.0,179.0,1319.0
12588.0,1492.0,20000.0,8184.0,-2213.0,2114.0
12492.0,-3432.0,26872.0,3996.0,-3718.0,1574.0
10396.0,120.0,18692.0,-1656.0,2050.0,5838.0
10084.0,-3272.0,22416.0,-3504.0,11008.0,5557.0
7596.0,-3232.0,19772.0,-6389.0,22185.0,9199.0
8344.0,-2036.0,20668.0,-10189.0,32767.0,9172.0
3084.0,-3412.0,19412.0,-13414.0,32767.0,3825.0
-3552.0,-3700.0,12728.0,-9052.0,32767.0,-3786.0
-8612.0,-4540.0,340.0,1616.0,-6844.0,-5962.0
-3520.0,-3112.0,-900.0,-2236.0,-32768.0,-12589.0
12672.0,-3428.0,5052.0,4130.0,-32768.0,-18082.0
26752.0,-3724.0,25696.0,-4507.0,-32768.0,-16824.0
18844.0,-28.0,9820.0,-9368.0,-28675.0,-11073.0
19284.0,-7900.0,19216.0,2762.0,-7642.0,-7896.0
12080.0,-3748.0,12896.0,14048.0,-9212.0,555.0
18240.0,-2620.0,20168.0,11680.0,8176.0,7513.0
11752.0,-2500.0,20576.0,15476.0,13650.0,6911.0
11396.0,-2284.0,19932.0,4833.0,32767.0,20619.0
4816.0,-3460.0,22616.0,-5542.0,32767.0,17749.0
-8612.0,-4688.0,11388.0,4468.0,32767.0,11525.0
-7968.0,-2060.0,12172.0,-7450.0,32767.0,-5516.0
-7168.0,-1516.0,11628.0,4894.0,-5453.0,-12956.0
-3204.0,-648.0,3668.0,2194.0,-32768.0,-20746.0
3520.0,-8464.0,9168.0,-13420.0,-32768.0,-18466.0
17088.0,-408.0,8996.0,10955.0,-32768.0,-18072.0
18200.0,-9784.0,19680.0,-6717.0,-28644.0,-3133.0
17580.0,-1368.0,10864.0,6398.0,-16444.0,-4709.0
19312.0,-4964.0,17820.0,8185.0,-10763.0,-2432.0
15772.0,-688.0,16700.0,16559.0,5618.0,3894.0
13320.0,-2392.0,23092.0,20670.0,31536.0,11886.0
9868.0,456.0,22508.0,5911.0,30369.0,13099.0
3604.0,-2060.0,25336.0,511.0,32767.0,12777.0
-4364.0,-1544.0,18064.0,-1012.0,32767.0,2110.0
-6760.0,-2852.0,15004.0,-3006.0,18036.0,-8320.0
-3668.0,436.0,11468.0,-6999.0,3875.0,-15072.0
-4856.0,-3240.0,5804.0,-4042.0,-20749.0,-23623.0
7460.0,-4248.0,9508.0,-3362.0,-32768.0,-19887.0
22932.0,-7380.0,16604.0,-2035.0,-32768.0,-9100.0
18192.0,3844.0,4552.0,1745.0,-23032.0,-6665.0
23772.0,-2060.0,15052.0,-18.0,-270.0,-3081.0
13820.0,-3676.0,14412.0,15799.0,-8608.0,-2046.0
16068.0,1184.0,17228.0,10225.0,3737.0,6490.0
10636.0,-1556.0,21408.0,9104.0,23650.0,14702.0
12180.0,-1800.0,27248.0,19472.0,32767.0,24546.0
-52.0,8016.0,21812.0,15525.0,32767.0,19222.0
-9548.0,1744.0,18364.0,5067.0,32079.0,-3718.0
-6540.0,2712.0,10392.0,-7892.0,-2354.0,-11626.0
-3344.0,-2736.0,8676.0,-14000.0,-32768.0,-23252.0
7288.0,-3208.0,6264.0,-3618.0,-32768.0,-26509.0
20468.0,1928.0,5440.0,-25498.0,-32768.0,-23179.0
23416.0,-4984.0,14700.0,-8836.0,-22513.0,-3878.0
16696.0,-812.0,14692.0,3769.0,-6469.0,-7765.0
14072.0,-172.0,14608.0,17435.0,-13469.0,-5518.0
14624.0,-136.0,10700.0,20166.0,-1949.0,10030.0
