ax,ay,az,gx,gy,gz
1944.0,-15940.0,18136.0,-24345.0,-7389.0,-16525.0
-2624.0,-24044.0,16940.0,-8097.0,-8891.0,-12262.0
-1760.0,-23108.0,16856.0,6573.0,5349.0,7513.0
-2248.0,-14780.0,14652.0,14484.0,13206.0,17961.0
-1336.0,-9452.0,14932.0,15981.0,7168.0,25457.0
-3648.0,-2312.0,12780.0,16485.0,5646.0,28396.0
-5536.0,1080.0,12164.0,12631.0,563.0,28624.0
-5940.0,9492.0,14088.0,12393.0,-2334.0,19884.0
-5540.0,14100.0,15816.0,5653.0,-1261.0,6889.0
-5356.0,16580.0,15036.0,218.0,-3791.0,-13657.0
-4212.0,12472.0,14728.0,-12966.0,-7729.0,-26175.0
-1744.0,6108.0,11500.0,-26347.0,-7766.0,-32768.0
1912.0,-6044.0,12284.0,-28040.0,-8114.0,-32768.0
1712.0,-21900.0,16760.0,-32768.0,-5815.0,-13627.0
-2808.0,-27300.0,15664.0,-1169.0,1572.0,-6117.0
-2812.0,-22968.0,14596.0,11060.0,4714.0,15499.0
-1616.0,-14052.0,15148.0,18270.0,7432.0,25095.0
-2944.0,-5200.0,12088.0,23255.0,1061.0,25925.0
-2820.0,2744.0,14760.0,15305.0,1171.0,28078.0
-4920.0,8516.0,15128.0,9490.0,922.0,19578.0
-6108.0,12492.0,16116.0,6342.0,-52.0,4625.0
-6244.0,14124.0,14836.0,-2694.0,-3745.0,-11149.0
-4328.0,6376.0,17052.0,-13127.0,423.0,-18235.0
-5088.0,5208.0,12396.0,-20574.0,-2333.0,-24352.0
-1620.0,-3976.0,14260.0,-23360.0,-4466.0,-27091.0
-2864.0,-9976.0,9508.0,-19196.0,-3890.0,-27649.0
496.0,-24840.0,20156.0,-30641.0,-5707.0,-3080.0
-2724.0,-29692.0,16804.0,7794.0,5454.0,8139.0
-2620.0,-17600.0,12712.0,17730.0,11287.0,26751.0
-2220.0,-10700.0,12772.0,25549.0,1932.0,24439.0
-3136.0,456.0,9280.0,25611.0,-265.0,32767.0
-5064.0,12252.0,11076.0,22915.0,-2990.0,23986.0
-5548.0,21948.0,13872.0,7163.0,-2033.0,4119.0
-3892.0,21188.0,13580.0,-7040.0,-7274.0,-23903.0
-2632.0,10364.0,10604.0,-26205.0,-10275.0,-30730.0
1660.0,-1772.0,11632.0,-32768.0,-7174.0,-32768.0
3252.0,-18392.0,14512.0,-32768.0,-10058.0,-24174.0
-3880.0,-27432.0,12408.0,-3275.0,-2735.0,-18482.0
-3180.0,-32768.0,19720.0,2881.0,12534.0,22178.0
1084.0,-16472.0,15884.0,21890.0,11773.0,31587.0
-616.0,-5448.0,9576.0,31591.0,4169.0,30022.0
-3520.0,3444.0,9520.0,22604.0,3247.0,32767.0
-4284.0,17948.0,11820.0,21790.0,-5337.0,16702.0
-3944.0,25680.0,15952.0,-1000.0,1125.0,-1744.0
-3580.0,18172.0,11352.0,-17556.0,-8858.0,-26710.0
-1432.0,9200.0,8532.0,-26085.0,-11729.0,-32768.0
7064.0,-5336.0,13664.0,-32768.0,-9658.0,-32768.0
-312.0,-24160.0,10260.0,-32768.0,-14010.0,-26645.0
1356.0,-32768.0,18756.0,-9423.0,-1559.0,-1986.0
-1064.0,-24568.0,14276.0,17012.0,16737.0,16436.0
2076.0,-13472.0,16328.0,20665.0,13546.0,31555.0
1184.0,-4388.0,11612.0,27574.0,9160.0,30894.0
-2236.0,4512.0,8992.0,20079.0,11134.0,32767.0
-5672.0,12704.0,11040.0,20531.0,-735.0,21446.0
-4820.0,19484.0,13288.0,6292.0,-3386.0,8117.0
-4544.0,23472.0,12956.0,-3331.0,-7442.0,-18386.0
-4280.0,13308.0,9948.0,-19211.0,-11144.0,-30187.0
-92.0,4040.0,11604.0,-25865.0,-9170.0,-32768.0
4608.0,-7060.0,19200.0,-32768.0,-6110.0,-28131.0
-824.0,-23136.0,13616.0,-30474.0,-9167.0,-22552.0
-736.0,-21260.0,18344.0,-7521.0,-5692.0,-11017.0
232.0,-26484.0,20348.0,4363.0,4638.0,8248.0
-272.0,-19936.0,15636.0,13395.0,20571.0,32767.0
-212.0,-9416.0,12848.0,22647.0,11352.0,32466.0
-3652.0,-384.0,9032.0,20003.0,2330.0,32767.0
-4588.0,7156.0,11064.0,15395.0,-3254.0,31615.0
-3296.0,17888.0,14536.0,12847.0,-5790.0,13416.0
-4408.0,25808.0,14224.0,7.0,-363.0,-15677.0
-4204.0,15560.0,11168.0,-13312.0,-10500.0,-31104.0
888.0,6012.0,11120.0,-29911.0,-9445.0,-32768.0
4212.0,-6212.0,9560.0,-32768.0,-3876.0,-32768.0
4952.0,-24340.0,13128.0,-32768.0,-15942.0,-26349.0
-244.0,-32768.0,16256.0,-1527.0,-1557.0,-8610.0
-1364.0,-24564.0,14112.0,9081.0,8339.0,17136.0
-572.0,-17932.0,15660.0,14019.0,9704.0,32767.0
1648.0,-8300.0,13784.0,23395.0,5038.0,32307.0
-4152.0,-828.0,7952.0,18682.0,910.0,32767.0
-1792.0,6612.0,12980.0,12187.0,-6470.0,32767.0
-3296.0,21688.0,15288.0,17567.0,-7108.0,6626.0
-4076.0,20328.0,14792.0,-6325.0,2355.0,-10738.0
-3856.0,12524.0,12860.0,-11312.0,-11142.0,-29993.0
-540.0,5484.0,11844.0,-26084.0,-2423.0,-32768.0
3132.0,-11396.0,18788.0,-32768.0,-3972.0,-22093.0
-5700.0,-15580.0,8632.0,-12120.0,-6254.0,-31017.0
-3548.0,-25608.0,16908.0,-17626.0,-3681.0,1345.0
-1124.0,-23612.0,19616.0,1059.0,8461.0,13471.0
-1812.0,-16940.0,16736.0,14870.0,13068.0,28265.0
-3240.0,-7588.0,10516.0,22836.0,5327.0,27038.0
-4072.0,2084.0,12848.0,19497.0,-782.0,23199.0
-5964.0,7532.0,11260.0,16310.0,-1514.0,25108.0
-5208.0,15588.0,14584.0,11324.0,-2911.0,7885.0
-5548.0,22388.0,13984.0,-4649.0,1035.0,-15755.0
-5264.0,11512.0,11536.0,-23285.0,299.0,-24479.0
-1764.0,396.0,11532.0,-27352.0,-12855.0,-31431.0
-452.0,-10904.0,15408.0,-32768.0,-5294.0,-19031.0
-5636.0,-19276.0,9180.0,-6349.0,-2334.0,-29556.0
-1804.0,-23016.0,16132.0,-21713.0,-5561.0,2026.0
-1764.0,-26860.0,18364.0,7537.0,4127.0,11223.0
-2356.0,-16724.0,12324.0,24375.0,10482.0,23155.0
-2108.0,-6736.0,10824.0,27479.0,3222.0,29237.0
-4440.0,-16.0,9792.0,27037.0,3866.0,30088.0
-5580.0,6984.0,8916.0,28190.0,-7004.0,22166.0
-3636.0,18608.0,12328.0,15420.0,-4414.0,15543.0
-2752.0,28344.0,14288.0,3177.0,-4999.0,-10370.0
-3204.0,19080.0,11272.0,-19968.0,-8715.0,-23063.0
-3084.0,9080.0,7836.0,-32768.0,-7285.0,-29219.0
1400.0,-2084.0,11156.0,-32768.0,-5645.0,-32660.0
4100.0,-14624.0,11456.0,-32768.0,-14257.0,-30223.0
-868.0,-32768.0,18468.0,-19772.0,-5987.0,-8594.0
-2512.0,-32232.0,16336.0,18927.0,16430.0,19194.0
1064.0,-14504.0,12664.0,25995.0,8615.0,30959.0
-752.0,-3980.0,7464.0,32767.0,1554.0,32767.0
24.0,3808.0,8948.0,30913.0,-252.0,32767.0
-3168.0,21300.0,9424.0,21420.0,-6747.0,21025.0
-1576.0,25272.0,13672.0,8441.0,-353.0,4000.0
-536.0,24912.0,13968.0,-9602.0,-3419.0,-14742.0
-620.0,16272.0,10040.0,-30678.0,-4110.0,-32768.0
-52.0,1648.0,6576.0,-32768.0,-8588.0,-32768.0
3836.0,-7844.0,13808.0,-32768.0,-10844.0,-31752.0
1472.0,-30240.0,17856.0,-32768.0,-14259.0,-12741.0
-368.0,-28500.0,18524.0,10232.0,5362.0,-1364.0
-412.0,-17532.0,16188.0,17374.0,10594.0,19079.0
2140.0,-11428.0,17048.0,23725.0,10513.0,32767.0
-1152.0,-444.0,8772.0,30102.0,7334.0,32767.0
-548.0,6140.0,11956.0,19275.0,1665.0,32767.0
-1896.0,20044.0,13764.0,16991.0,1410.0,16932.0
-2268.0,22236.0,14164.0,2211.0,-1462.0,-590.0
-1576.0,23380.0,14104.0,-10029.0,-3696.0,-22829.0
-2008.0,10372.0,9152.0,-24859.0,-5518.0,-32768.0
-552.0,588.0,9888.0,-25366.0,-13116.0,-32768.0
6460.0,-12856.0,21712.0,-32768.0,-11388.0,-23951.0
-1752.0,-24968.0,18400.0,-6151.0,-3278.0,-18958.0
-3168.0,-23332.0,17588.0,5369.0,7423.0,9079.0
-444.0,-15016.0,19532.0,13551.0,16651.0,27387.0
-1028.0,-6832.0,13992.0,25726.0,5381.0,32767.0
-3016.0,5096.0,7808.0,18629.0,3447.0,32767.0
-2920.0,13320.0,11648.0,20103.0,-3261.0,24948.0
-2476.0,25500.0,13728.0,4762.0,-5025.0,5666.0
-1404.0,22736.0,12692.0,-9987.0,-11651.0,-20022.0
-552.0,12520.0,12460.0,-17420.0,-9516.0,-30857.0
2204.0,2116.0,12816.0,-30131.0,-11793.0,-32768.0
1240.0,-9776.0,14588.0,-31668.0,-6876.0,-23266.0
2932.0,-19080.0,21480.0,-19122.0,-8619.0,-14126.0
680.0,-20188.0,22072.0,-3939.0,-579.0,2616.0
716.0,-17460.0,20792.0,13921.0,17277.0,21352.0
2248.0,-8620.0,17368.0,18087.0,14591.0,32767.0
-1324.0,3320.0,10716.0,19039.0,9605.0,32767.0
-2616.0,8660.0,11992.0,15068.0,8711.0,29652.0
-4760.0,20840.0,10728.0,10884.0,986.0,13032.0
-3944.0,27668.0,14148.0,-1140.0,1401.0,-10053.0
-2988.0,18004.0,8904.0,-19891.0,-16024.0,-32768.0
-1552.0,1688.0,9972.0,-28173.0,-11412.0,-32768.0
4592.0,-5852.0,15812.0,-31409.0,-11080.0,-32768.0
2584.0,-23080.0,18268.0,-27778.0,-13684.0,-22162.0
-2124.0,-29384.0,20252.0,-6093.0,1068.0,5584.0
960.0,-20340.0,16364.0,20251.0,7216.0,27318.0
644.0,-7112.0,14856.0,20251.0,2087.0,32346.0
2620.0,-308.0,12996.0,22006.0,-1493.0,32767.0
-1084.0,16932.0,14172.0,14343.0,2517.0,16708.0
-3268.0,22952.0,12768.0,-5023.0,-2860.0,-2595.0
-2592.0,22728.0,15288.0,-30486.0,-9544.0,-32768.0
7492.0,-11080.0,15656.0,-32768.0,-29317.0,-32768.0
5636.0,-23904.0,20064.0,-28551.0,-11386.0,-22751.0
1032.0,-32768.0,19964.0,-448.0,5200.0,6250.0
3268.0,-18612.0,17340.0,20113.0,7964.0,20300.0
2476.0,-9652.0,11300.0,32767.0,10069.0,23366.0
5048.0,2620.0,13332.0,31137.0,18881.0,28033.0
-3252.0,17044.0,9816.0,12409.0,12805.0,15612.0
-3440.0,14672.0,15928.0,-4270.0,7352.0,2304.0
-5748.0,14104.0,13444.0,-4521.0,-2410.0,-19139.0
-2796.0,3756.0,16268.0,-16857.0,-85.0,-24433.0
-4028.0,-5964.0,17464.0,-22113.0,-2320.0,-20500.0
-7344.0,-15456.0,18524.0,-10124.0,2538.0,-3317.0
-5752.0,-13396.0,18992.0,-5711.0,7379.0,8971.0
-8520.0,-12792.0,14868.0,7550.0,1856.0,13471.0
-7168.0,-7648.0,14440.0,12833.0,-2588.0,21591.0
-5932.0,-636.0,11748.0,20977.0,-8770.0,21395.0
-2296.0,9416.0,14924.0,13083.0,-10644.0,20609.0
-352.0,19276.0,17212.0,10905.0,-4678.0,3062.0
-1192.0,20176.0,15748.0,-5632.0,-1634.0,-14326.0
-1516.0,11108.0,14416.0,-16375.0,-4918.0,-26161.0
-552.0,912.0,16984.0,-23495.0,2090.0,-22980.0
-5520.0,-8588.0,13596.0,-24437.0,-4272.0,-18557.0
-4372.0,-16336.0,19312.0,-7512.0,-1552.0,-9545.0
-6136.0,-20624.0,20888.0,3913.0,6741.0,10139.0
-6176.0,-10332.0,14960.0,19131.0,5547.0,18581.0
-4752.0,-3880.0,13152.0,21303.0,-865.0,25560.0
-1944.0,6652.0,10700.0,20188.0,-7457.0,27012.0
1148.0,16868.0,14444.0,13321.0,-5008.0,17339.0
1732.0,24652.0,16296.0,1463.0,3604.0,-2003.0
-660.0,19676.0,12528.0,-11993.0,-2858.0,-19085.0
-2400.0,9840.0,9896.0,-21943.0,-8178.0,-30061.0
2604.0,-5896.0,18236.0,-31203.0,-4454.0,-22389.0
-7504.0,-26204.0,22300.0,-16217.0,13339.0,4539.0
-7844.0,-15924.0,17916.0,3956.0,11096.0,23552.0
-5728.0,-5320.0,13076.0,13501.0,-2252.0,26783.0
-1500.0,5952.0,10516.0,20197.0,-10220.0,28070.0
-352.0,26868.0,12176.0,16579.0,-5785.0,6380.0
-20.0,24052.0,13540.0,-2010.0,-4943.0,-11279.0
240.0,18840.0,10388.0,-17585.0,-8307.0,-31554.0
5960.0,-2928.0,19612.0,-31489.0,-13223.0,-29106.0
-4992.0,-10880.0,12536.0,-26384.0,-628.0,-22268.0
-5768.0,-25652.0,22424.0,-6770.0,6048.0,1247.0
-4676.0,-13984.0,18884.0,15990.0,2176.0,9116.0
-3984.0,-5652.0,16576.0,19990.0,9452.0,21570.0
-1152.0,2600.0,12936.0,22145.0,-1657.0,25506.0
-1468.0,15336.0,12116.0,16016.0,-5825.0,18529.0
412.0,21704.0,15536.0,1123.0,4293.0,4858.0
-160.0,20304.0,14376.0,-11645.0,-18.0,-14767.0
72.0,12580.0,11696.0,-23958.0,-7257.0,-32300.0
-896.0,-7616.0,16512.0,-29107.0,-2430.0,-23646.0
-724.0,-18568.0,24736.0,-19394.0,-1106.0,-8607.0
-8056.0,-18992.0,17544.0,4580.0,4292.0,4113.0
-6156.0,-10352.0,16660.0,13366.0,11554.0,21075.0
-3168.0,-1360.0,16284.0,17505.0,-2374.0,22216.0
-3008.0,8580.0,12256.0,14309.0,-3253.0,22137.0
-896.0,14704.0,15788.0,10915.0,-3023.0,11274.0
16.0,19876.0,15844.0,1091.0,-7144.0,-5487.0
-84.0,18884.0,13120.0,-13732.0,-7275.0,-20114.0
1432.0,5684.0,13184.0,-27208.0,-5535.0,-28701.0
560.0,-6140.0,17020.0,-27100.0,-2471.0,-24161.0
-3684.0,-18812.0,20024.0,-17903.0,-2313.0,-8321.0
-5756.0,-18840.0,18776.0,3648.0,9389.0,3764.0
-4512.0,-12336.0,17532.0,13024.0,5757.0,16106.0
-3268.0,-4648.0,16072.0,18929.0,-2342.0,23828.0
-680.0,2312.0,14152.0,19134.0,-729.0,27262.0
100.0,12580.0,12556.0,16200.0,-3427.0,20322.0
828.0,19208.0,15732.0,8660.0,-301.0,6937.0
1212.0,20756.0,15132.0,-4240.0,-1134.0,-7685.0
1220.0,18436.0,12976.0,-20159.0,-5225.0,-23830.0
728.0,5796.0,10848.0,-29062.0,-4988.0,-29798.0
1352.0,-6244.0,15568.0,-28634.0,-1213.0,-27058.0
-2820.0,-23068.0,21584.0,-22058.0,-839.0,-6439.0
-5920.0,-21476.0,18212.0,8376.0,4092.0,3112.0
-3196.0,-12644.0,18376.0,15418.0,7534.0,20948.0
-1568.0,-4584.0,15356.0,24850.0,-322.0,23200.0
-188.0,3048.0,12636.0,24970.0,-3017.0,27302.0
-1048.0,19372.0,10056.0,20373.0,1037.0,15879.0
-568.0,21192.0,12964.0,7953.0,-2780.0,-604.0
892.0,22208.0,14212.0,-8867.0,-3592.0,-13891.0
356.0,15264.0,11368.0,-27466.0,-1467.0,-24423.0
1540.0,4168.0,11648.0,-32768.0,-6331.0,-29544.0
116.0,-9944.0,14768.0,-32768.0,36.0,-24110.0
-2344.0,-24540.0,21676.0,-12473.0,-5994.0,-10564.0
-4880.0,-18656.0,17464.0,7750.0,2117.0,2489.0
-2572.0,-16448.0,20068.0,10825.0,11359.0,23413.0
-332.0,-5876.0,14416.0,30903.0,-671.0,23393.0
-2492.0,7576.0,8624.0,21544.0,-50.0,29245.0
-100.0,16840.0,13640.0,18419.0,144.0,19237.0
-124.0,21664.0,15264.0,270.0,2630.0,4980.0
-572.0,20456.0,12220.0,-12612.0,-5204.0,-16089.0
-1736.0,10644.0,11044.0,-23101.0,-9366.0,-25701.0
1672.0,1268.0,13720.0,-25392.0,-9984.0,-29712.0
1608.0,-12496.0,18680.0,-30390.0,-1260.0,-16623.0
-3460.0,-22772.0,21360.0,-10702.0,-595.0,-3269.0
-4060.0,-18892.0,19196.0,5121.0,6423.0,10039.0
-960.0,-13336.0,18668.0,19388.0,3149.0,23668.0
628.0,-1744.0,11536.0,26882.0,3242.0,32767.0
408.0,11740.0,10948.0,21015.0,-4534.0,26872.0
1508.0,19268.0,14980.0,15539.0,1745.0,12930.0
1488.0,23976.0,14676.0,-371.0,-527.0,-2965.0
1748.0,23152.0,11964.0,-16799.0,-3091.0,-26127.0
1360.0,8968.0,11084.0,-31602.0,-905.0,-32768.0
2884.0,-8812.0,15332.0,-32768.0,-8922.0,-31298.0
-2596.0,-15320.0,14036.0,-23467.0,3636.0,-22080.0
-3656.0,-26376.0,20552.0,-8388.0,-1135.0,-3559.0
-3040.0,-15844.0,18648.0,11495.0,3892.0,11298.0
-1212.0,-11064.0,17100.0,18813.0,8401.0,26823.0
104.0,-428.0,14108.0,23329.0,2232.0,29412.0
-1008.0,6888.0,12328.0,18511.0,-377.0,27951.0
-252.0,18900.0,15132.0,10103.0,-2159.0,14097.0
-532.0,21912.0,15716.0,-1472.0,308.0,-6357.0
-1008.0,17436.0,12836.0,-15981.0,-7683.0,-24089.0
264.0,8460.0,10984.0,-26799.0,-9070.0,-32247.0
5508.0,-6732.0,18292.0,-32768.0,-2942.0,-26599.0
-460.0,-18536.0,17312.0,-23524.0,1665.0,-19326.0
-5216.0,-28300.0,18892.0,-1965.0,7986.0,4657.0
-2664.0,-14944.0,16876.0,18113.0,8066.0,17272.0
-1988.0,-8284.0,14392.0,20076.0,2174.0,27334.0
-1272.0,496.0,11512.0,22057.0,-2831.0,32767.0
716.0,10900.0,13360.0,21418.0,-6698.0,28317.0
968.0,22380.0,15688.0,10915.0,-2425.0,7932.0
1292.0,25132.0,14908.0,-3617.0,-55.0,-15328.0
284.0,17668.0,10292.0,-22407.0,-6202.0,-32768.0
3512.0,5668.0,9172.0,-31236.0,-8088.0,-32768.0
5876.0,-13312.0,17336.0,-32768.0,-5578.0,-29232.0
-3412.0,-26616.0,15204.0,-12589.0,-8513.0,-17958.0
-1268.0,-25304.0,19924.0,-678.0,4753.0,10362.0
1524.0,-19076.0,21812.0,17800.0,14078.0,25911.0
-56.0,-7052.0,12972.0,31186.0,-1842.0,26258.0
-904.0,5652.0,9628.0,24563.0,2478.0,29421.0
-152.0,10452.0,13904.0,22006.0,-824.0,23267.0
-1672.0,21324.0,12636.0,7679.0,-1588.0,10031.0
392.0,26764.0,14860.0,-4840.0,120.0,-12897.0
-744.0,14364.0,9552.0,-25812.0,-7654.0,-27422.0
1104.0,3868.0,10740.0,-31633.0,-8917.0,-30104.0
3256.0,-9492.0,14828.0,-32768.0,-10945.0,-25976.0
964.0,-24500.0,21520.0,-25365.0,-1378.0,-10183.0
-1992.0,-19480.0,17096.0,1264.0,1315.0,-641.0
-676.0,-19048.0,21164.0,11548.0,9422.0,21612.0
1828.0,-10604.0,17128.0,25964.0,6172.0,27581.0
-176.0,2692.0,9884.0,26940.0,5206.0,28016.0
-3440.0,9640.0,9592.0,23192.0,-2785.0,23432.0
-1660.0,16876.0,13332.0,18265.0,-2403.0,11210.0
-852.0,24184.0,14676.0,2760.0,-2658.0,-4708.0
-1360.0,20544.0,11568.0,-16333.0,-6453.0,-20933.0
-960.0,9368.0,9900.0,-29239.0,-8020.0,-27183.0
4344.0,-3028.0,18120.0,-32768.0,-9327.0,-25947.0
348.0,-11864.0,13920.0,-24546.0,-2074.0,-27644.0
-1396.0,-21096.0,17996.0,-16005.0,-4167.0,-11111.0
756.0,-21688.0,23532.0,-1525.0,3462.0,9765.0
-548.0,-15944.0,18392.0,14309.0,14125.0,22630.0
-808.0,-7268.0,14052.0,25121.0,6228.0,27400.0
-1440.0,3296.0,11456.0,21996.0,4697.0,29104.0
-2520.0,9756.0,11496.0,22080.0,1963.0,22845.0
-2564.0,18480.0,13076.0,9665.0,-4112.0,11885.0
-1100.0,25216.0,15000.0,-454.0,-4352.0,-11574.0
-1684.0,16152.0,11644.0,-21680.0,-7942.0,-24144.0
-1188.0,5156.0,11824.0,-28483.0,-6558.0,-25897.0
2148.0,-2760.0,14776.0,-28490.0,-8220.0,-29001.0
336.0,-21228.0,20704.0,-32308.0,-2062.0,-7343.0
-4276.0,-24524.0,19556.0,5872.0,5873.0,6031.0
-3368.0,-14012.0,15348.0,13056.0,6604.0,22384.0
-3184.0,-3608.0,12816.0,22767.0,-6571.0,19059.0
-336.0,1436.0,15712.0,19803.0,-2053.0,29351.0
312.0,11572.0,14120.0,18293.0,-3895.0,22062.0
-472.0,20620.0,16560.0,5656.0,-2117.0,2616.0
-56.0,22748.0,13220.0,-10217.0,-6356.0,-20307.0
592.0,8732.0,13652.0,-23748.0,-3326.0,-26465.0
1440.0,3092.0,11232.0,-31465.0,-5001.0,-30926.0
5844.0,-14056.0,19108.0,-32768.0,-6222.0,-22664.0
-1928.0,-27500.0,20112.0,-10779.0,-906.0,-6134.0
-2032.0,-17716.0,16620.0,9357.0,3616.0,6328.0
-1440.0,-12412.0,18636.0,13733.0,4995.0,19253.0
-1072.0,-5936.0,15588.0,22881.0,3390.0,23516.0
-956.0,4.0,13452.0,18708.0,-990.0,29955.0
-804.0,13600.0,13496.0,16104.0,-1751.0,22814.0
-1032.0,15596.0,17028.0,5041.0,3099.0,5759.0
-924.0,19332.0,15860.0,-4070.0,4701.0,-11112.0
-1996.0,14540.0,10828.0,-22265.0,-6231.0,-26714.0
2260.0,2260.0,13028.0,-30195.0,-6599.0,-31753.0
4648.0,-13632.0,17540.0,-32768.0,-763.0,-26981.0
-7308.0,-32768.0,17208.0,-11200.0,-429.0,-7769.0
-4080.0,-19996.0,15592.0,9933.0,7833.0,13461.0
-1240.0,-14244.0,18596.0,17382.0,3556.0,25447.0
-2044.0,-3884.0,11772.0,26563.0,-149.0,24507.0
-1016.0,4260.0,12604.0,23776.0,-2112.0,28993.0
-1968.0,16748.0,12236.0,20814.0,-3826.0,13229.0
-2052.0,20068.0,13676.0,6543.0,-5142.0,-329.0
296.0,21452.0,14620.0,-8773.0,-4870.0,-17910.0
348.0,13216.0,11328.0,-28606.0,-8823.0,-27521.0
5324.0,-4800.0,20164.0,-32768.0,-5604.0,-25766.0
-3416.0,-12532.0,11424.0,-23756.0,-4238.0,-26178.0
-1000.0,-20468.0,18040.0,-12273.0,-2636.0,-8104.0
1164.0,-20128.0,22996.0,3073.0,3306.0,6945.0
-928.0,-15864.0,19192.0,15652.0,14299.0,25382.0
764.0,-2652.0,13112.0,25294.0,1391.0,25074.0
-2116.0,4268.0,13372.0,16964.0,3120.0,28290.0
-2524.0,9916.0,13808.0,17436.0,505.0,21052.0
-1516.0,16816.0,16148.0,6436.0,-246.0,10606.0
-1680.0,20852.0,15164.0,-2646.0,-1593.0,-8609.0
-2368.0,16556.0,10508.0,-16336.0,-10546.0,-26973.0
1496.0,6388.0,11916.0,-29673.0,-10596.0,-30535.0
4060.0,-6728.0,15488.0,-32631.0,-5487.0,-29442.0
-1100.0,-24128.0,19708.0,-18158.0,-2131.0,-13528.0
-1396.0,-21388.0,20472.0,-2497.0,3747.0,7002.0
-764.0,-14972.0,18752.0,16230.0,11141.0,19339.0
-996.0,-6656.0,14280.0,25700.0,6760.0,25677.0
-848.0,5316.0,12180.0,20532.0,2625.0,29579.0
-1368.0,14484.0,12440.0,16688.0,-3449.0,20886.0
-1920.0,18512.0,14520.0,7521.0,-3194.0,3285.0
-400.0,22408.0,15288.0,-8128.0,1032.0,-12798.0
-1320.0,13384.0,10648.0,-21773.0,-9755.0,-30074.0
2576.0,3808.0,10228.0,-31247.0,-11654.0,-32768.0
3456.0,-14404.0,17252.0,-32768.0,-131.0,-20241.0
-3136.0,-27508.0,19012.0,-6965.0,3092.0,-9120.0
-2852.0,-21356.0,18028.0,6571.0,6025.0,13152.0
-376.0,-15968.0,19184.0,18946.0,11968.0,26777.0
0.0,-4936.0,11592.0,28951.0,3162.0,30887.0
-1460.0,5248.0,8364.0,23176.0,-739.0,32767.0
1248.0,19684.0,13976.0,21586.0,-359.0,19005.0
-264.0,23516.0,13636.0,2013.0,1379.0,2065.0
-1128.0,24624.0,11908.0,-7884.0,-3690.0,-19261.0
468.0,14040.0,8616.0,-25088.0,-11195.0,-32768.0
4760.0,2364.0,13012.0,-31875.0,-8960.0,-32768.0
7748.0,-11828.0,14472.0,-32768.0,-11972.0,-32768.0
-2080.0,-32768.0,18496.0,-19312.0,-6227.0,-14172.0
-2156.0,-27088.0,18412.0,5968.0,13143.0,14111.0
204.0,-15108.0,17632.0,17659.0,7595.0,28978.0
1640.0,-7128.0,12044.0,28162.0,5367.0,32767.0
760.0,5412.0,10112.0,21214.0,-572.0,32767.0
1532.0,13612.0,13532.0,18021.0,-3337.0,28148.0
-276.0,24288.0,14368.0,4912.0,1704.0,6623.0
372.0,25896.0,14392.0,-7898.0,-1670.0,-18149.0
808.0,14824.0,9712.0,-24121.0,-8505.0,-32768.0
5988.0,-2000.0,14868.0,-32768.0,-7984.0,-32768.0
400.0,-12148.0,13020.0,-27016.0,-4043.0,-31945.0
1444.0,-23428.0,20528.0,-18011.0,-6309.0,-12898.0
-2216.0,-25884.0,20944.0,5693.0,6821.0,10693.0
-332.0,-15308.0,18112.0,16772.0,16271.0,27361.0
-1256.0,-4408.0,11732.0,24813.0,2903.0,32186.0
-540.0,3704.0,11816.0,18210.0,820.0,32767.0
776.0,14056.0,15648.0,16670.0,-5442.0,22694.0
-544.0,23128.0,15204.0,4765.0,830.0,3108.0
-308.0,24200.0,12760.0,-15347.0,-1017.0,-23151.0
-1672.0,9308.0,8304.0,-19964.0,-13275.0,-32768.0
7732.0,-2284.0,16336.0,-32081.0,-15683.0,-32768.0
2364.0,-17524.0,16596.0,-27468.0,6.0,-26007.0
-2044.0,-31520.0,22180.0,-14355.0,1650.0,4510.0
-1688.0,-19112.0,17228.0,15716.0,11059.0,19117.0
-788.0,-10132.0,16240.0,19691.0,6615.0,28733.0
240.0,-2556.0,11260.0,20728.0,2485.0,32767.0
2548.0,9960.0,12364.0,19290.0,-3539.0,32767.0
380.0,24244.0,15272.0,9180.0,3873.0,11308.0
-1516.0,21828.0,13908.0,-3950.0,-606.0,-6846.0
-1308.0,21004.0,10916.0,-14966.0,-6044.0,-31629.0
560.0,7672.0,8040.0,-24409.0,-13942.0,-32768.0
9388.0,-8456.0,19480.0,-30897.0,-14647.0,-32768.0
-768.0,-27524.0,20124.0,-19808.0,-314.0,-15182.0
-4536.0,-25656.0,18924.0,-281.0,11656.0,10468.0
-1840.0,-14948.0,18504.0,15909.0,8107.0,24218.0
-1512.0,-5784.0,13192.0,21515.0,3936.0,31740.0
-428.0,5836.0,11360.0,17453.0,-3346.0,32015.0
-688.0,18200.0,15416.0,13253.0,-1480.0,16315.0
-1424.0,24388.0,15872.0,1408.0,-298.0,-11071.0
-1896.0,15464.0,11720.0,-17981.0,-10826.0,-26351.0
2036.0,8204.0,9692.0,-25618.0,-9172.0,-32768.0
8480.0,-11300.0,21048.0,-32768.0,-7614.0,-24124.0
-2412.0,-26896.0,18560.0,-8015.0,-5130.0,-19598.0
-3180.0,-24896.0,18436.0,2314.0,18526.0,17871.0
-1164.0,-12964.0,17604.0,18352.0,11705.0,24185.0
-2880.0,-1740.0,10980.0,26562.0,792.0,23648.0
-1252.0,5120.0,15212.0,13585.0,1409.0,26594.0
-3352.0,13052.0,14012.0,15288.0,-912.0,13223.0
-3648.0,18288.0,15148.0,4472.0,-1976.0,144.0
-2972.0,19756.0,12776.0,-10564.0,-7074.0,-23702.0
-2196.0,7060.0,10696.0,-21121.0,-15030.0,-30414.0
5840.0,-1816.0,16148.0,-31124.0,-14933.0,-29386.0
700.0,-29812.0,22832.0,-30056.0,-4566.0,-6749.0
-3388.0,-21636.0,17448.0,4160.0,13780.0,10316.0
-988.0,-13912.0,18192.0,13023.0,13751.0,21375.0
-3188.0,-5708.0,14668.0,20347.0,10712.0,24883.0
-1684.0,5544.0,13080.0,17400.0,-2325.0,31163.0
-2280.0,17816.0,11272.0,13288.0,-2181.0,15806.0
-3840.0,22492.0,15436.0,1649.0,-2891.0,-6372.0
-3600.0,17484.0,11300.0,-15188.0,-9907.0,-26044.0
1032.0,4388.0,13624.0,-26481.0,-11061.0,-29994.0
2360.0,-5852.0,14980.0,-28413.0,-7410.0,-30531.0
-216.0,-29840.0,23304.0,-26573.0,1248.0,-1654.0
-3620.0,-18900.0,17504.0,5661.0,11754.0,11663.0
-2292.0,-10200.0,17324.0,12891.0,6997.0,20886.0
-2840.0,-5612.0,16624.0,18177.0,-914.0,26667.0
-2076.0,5600.0,10808.0,19895.0,-766.0,24102.0
-4168.0,15016.0,15276.0,11378.0,-2356.0,13920.0
-1952.0,23912.0,16408.0,-2850.0,497.0,-11565.0
-3240.0,12860.0,11256.0,-21815.0,-10534.0,-25916.0
3596.0,3564.0,12064.0,-28718.0,-9975.0,-32768.0
5500.0,-16804.0,17680.0,-32768.0,-12777.0,-23345.0
-1064.0,-27092.0,17840.0,-1967.0,-2556.0,-12097.0
-888.0,-23252.0,17972.0,12998.0,10660.0,13773.0
76.0,-11824.0,17856.0,16715.0,11140.0,29275.0
-360.0,-556.0,10640.0,27070.0,-1447.0,27291.0
-268.0,12784.0,14700.0,15682.0,4801.0,21144.0
-3652.0,19596.0,16516.0,-19.0,1875.0,-753.0
-4008.0,17272.0,10540.0,-14195.0,-5055.0,-25232.0
1564.0,4736.0,13180.0,-24876.0,-12008.0,-32768.0
4720.0,-16608.0,16120.0,-32768.0,-12295.0,-25717.0
1668.0,-29344.0,20600.0,-13192.0,-771.0,-5264.0
-916.0,-21052.0,14800.0,13352.0,15895.0,16350.0
-688.0,-10952.0,17984.0,19371.0,16472.0,25765.0
8.0,-4024.0,12504.0,24308.0,-1574.0,32767.0
-864.0,9196.0,11204.0,20491.0,5425.0,28602.0
-3076.0,17120.0,15392.0,12547.0,-4065.0,12611.0
-2516.0,21944.0,15120.0,324.0,289.0,-6674.0
-2984.0,19232.0,10664.0,-18051.0,-5396.0,-28707.0
2216.0,4784.0,11708.0,-30785.0,-11925.0,-32768.0
3680.0,-8008.0,12680.0,-32768.0,-5781.0,-32250.0
912.0,-26744.0,18260.0,-19458.0,-6861.0,-19526.0
-1384.0,-28600.0,19608.0,-824.0,7655.0,5985.0
-1896.0,-17628.0,14996.0,13841.0,11783.0,21635.0
236.0,-8292.0,16676.0,20621.0,1139.0,32048.0
616.0,376.0,11148.0,26646.0,1288.0,30716.0
-2020.0,11064.0,12984.0,15969.0,1948.0,28754.0
-2272.0,25364.0,15364.0,7964.0,4532.0,1066.0
-2608.0,20188.0,12676.0,-8459.0,-3978.0,-23263.0
-352.0,13748.0,8956.0,-22607.0,-10544.0,-32768.0
8056.0,-5460.0,17012.0,-32768.0,-16670.0,-32768.0
1532.0,-27808.0,18132.0,-16647.0,-5521.0,-26242.0
-4872.0,-29656.0,17752.0,1218.0,11601.0,10026.0
-848.0,-14292.0,16280.0,16152.0,11155.0,21762.0
-1568.0,-7448.0,16140.0,21201.0,2860.0,28886.0
-536.0,3300.0,10668.0,24386.0,-2941.0,32380.0
-960.0,15764.0,14248.0,9310.0,-2114.0,24920.0
-168.0,25496.0,19024.0,4617.0,2952.0,-6650.0
-2108.0,16204.0,11108.0,-15422.0,-6823.0,-26658.0
1924.0,8096.0,9748.0,-22014.0,-10743.0,-32768.0
6576.0,-7704.0,15336.0,-32768.0,-10013.0,-31543.0
3800.0,-29016.0,20600.0,-28298.0,-17608.0,-17597.0
-484.0,-28020.0,18692.0,7191.0,8739.0,8571.0
1992.0,-14932.0,18260.0,17554.0,15314.0,27904.0
1768.0,-9648.0,14712.0,24776.0,5825.0,32767.0
1680.0,6500.0,6832.0,25726.0,2693.0,32767.0
1228.0,16696.0,15800.0,10094.0,-3224.0,30123.0
24.0,23272.0,17500.0,4784.0,2276.0,2129.0
-1036.0,19292.0,12336.0,-15346.0,2364.0,-18459.0
-908.0,12960.0,9032.0,-19540.0,-5362.0,-32768.0
6024.0,-7172.0,16624.0,-32768.0,-10250.0,-31962.0
-1016.0,-22512.0,15428.0,-25248.0,-4433.0,-23923.0
-3220.0,-30864.0,20412.0,-5075.0,2344.0,2861.0
-2952.0,-17776.0,15680.0,14209.0,13347.0,19892.0
-768.0,-10004.0,17144.0,15060.0,4737.0,32492.0
-1132.0,1496.0,9768.0,22417.0,-6236.0,31410.0
652.0,18188.0,16736.0,12123.0,-3521.0,18528.0
-1992.0,21840.0,16276.0,-3069.0,1915.0,-8384.0
-2048.0,15416.0,12360.0,-16668.0,-5552.0,-25997.0
4168.0,4420.0,11128.0,-32519.0,-7271.0,-32768.0
6800.0,-13860.0,15672.0,-32768.0,-2253.0,-32768.0
2492.0,-26972.0,16196.0,-17068.0,-10112.0,-22202.0
-1776.0,-28756.0,16396.0,6571.0,5407.0,3545.0
-252.0,-18804.0,15944.0,15452.0,11571.0,24815.0
2212.0,-10596.0,16316.0,24471.0,1401.0,32352.0
-440.0,68.0,8088.0,32130.0,2717.0,30250.0
-1804.0,12936.0,12468.0,13902.0,-6151.0,24664.0
-808.0,23488.0,20760.0,1979.0,5833.0,-2969.0
-2260.0,16236.0,11180.0,-16277.0,-3000.0,-25141.0
2224.0,6776.0,9356.0,-29123.0,-9899.0,-32768.0
6352.0,-18324.0,16216.0,-32768.0,-4298.0,-22022.0
1188.0,-28500.0,18748.0,-6297.0,-7610.0,-14953.0
-3304.0,-27044.0,14204.0,14218.0,12560.0,17679.0
-728.0,-8820.0,14888.0,23259.0,10347.0,20634.0
-2300.0,-6072.0,13836.0,19008.0,-464.0,32767.0
-620.0,11048.0,10056.0,17482.0,-2958.0,29390.0
-460.0,17680.0,19516.0,4297.0,-3090.0,13163.0
-1948.0,18020.0,15028.0,-6963.0,959.0,-17683.0
-2344.0,9944.0,11616.0,-20500.0,-9316.0,-30894.0
4804.0,2572.0,10396.0,-27843.0,-8892.0,-32768.0
3900.0,-27908.0,20228.0,-32768.0,-10382.0,-15569.0
-2620.0,-30248.0,17240.0,8721.0,6645.0,5086.0
-1072.0,-15768.0,14740.0,16233.0,15027.0,16178.0
-1596.0,-12076.0,17376.0,12723.0,5388.0,31844.0
224.0,-1148.0,10720.0,28722.0,-2127.0,29717.0
-1268.0,10612.0,12640.0,13042.0,-4595.0,30783.0
644.0,20352.0,18796.0,9406.0,130.0,7779.0
-1840.0,22552.0,11164.0,-12693.0,1230.0,-21692.0
-2424.0,11332.0,8884.0,-23245.0,-8351.0,-32768.0
5632.0,-6636.0,14980.0,-32768.0,-9572.0,-30153.0
3404.0,-24768.0,18676.0,-32768.0,-8595.0,-18858.0
-700.0,-24656.0,17484.0,-1635.0,3021.0,-6499.0
-3452.0,-22208.0,16032.0,4368.0,11778.0,16260.0
-284.0,-17824.0,19036.0,13244.0,6147.0,32767.0
-200.0,-5360.0,10116.0,30164.0,-618.0,28470.0
-2160.0,6440.0,10224.0,18241.0,-3140.0,29846.0
-1488.0,16932.0,15452.0,10294.0,-10539.0,14745.0
-1404.0,23344.0,16316.0,-3337.0,-899.0,-13862.0
-1692.0,12380.0,10660.0,-22630.0,-5526.0,-27759.0
6520.0,-344.0,14928.0,-32768.0,-6094.0,-31908.0
1156.0,-19340.0,12908.0,-32768.0,4701.0,-27249.0
100.0,-23452.0,17300.0,-13552.0,-4244.0,-12852.0
-140.0,-20748.0,17528.0,1359.0,3433.0,-1786.0
-980.0,-20444.0,16472.0,10081.0,6742.0,14559.0
112.0,-13076.0,16520.0,17840.0,10307.0,26713.0
-1104.0,-2632.0,11900.0,26907.0,2911.0,24571.0
-3404.0,4360.0,12676.0,16507.0,8099.0,21587.0
-5568.0,6264.0,14344.0,11823.0,-5312.0,19533.0
-3176.0,17748.0,17696.0,5985.0,632.0,3083.0
-5228.0,16472.0,12324.0,-9883.0,-5420.0,-20282.0
-1660.0,10288.0,10300.0,-22315.0,-9148.0,-29866.0
5820.0,-5240.0,16552.0,-32768.0,-13117.0,-27616.0
896.0,-18048.0,11732.0,-24519.0,-3481.0,-29271.0
2124.0,-27368.0,17548.0,-21035.0,-1712.0,-7527.0
-540.0,-23096.0,15408.0,5025.0,2512.0,2620.0
-96.0,-19260.0,16444.0,10153.0,9035.0,20671.0
856.0,-13652.0,16644.0,17549.0,3141.0,30672.0
284.0,-6616.0,11940.0,27473.0,2860.0,28558.0
-2588.0,1724.0,10256.0,19945.0,6736.0,31628.0
-1924.0,4284.0,12608.0,23321.0,-4475.0,25185.0
-1248.0,21280.0,13688.0,10931.0,-2333.0,17557.0
-1176.0,25824.0,15392.0,184.0,-1329.0,-11582.0
-2592.0,16372.0,10920.0,-16475.0,-7676.0,-27202.0
700.0,10096.0,9300.0,-28330.0,-8278.0,-32768.0
5868.0,-8400.0,14980.0,-32768.0,-7578.0,-32768.0
740.0,-18040.0,12556.0,-24487.0,-2850.0,-30115.0
-936.0,-23076.0,17556.0,-10401.0,-4452.0,-16839.0
724.0,-19108.0,17272.0,-826.0,-1032.0,-2241.0
804.0,-22416.0,20440.0,6425.0,8071.0,16237.0
-200.0,-17020.0,16056.0,17554.0,11571.0,31446.0
128.0,-7748.0,12204.0,30357.0,4528.0,29309.0
-1708.0,1728.0,10040.0,22157.0,7623.0,30369.0
-3512.0,6952.0,11484.0,17824.0,-3950.0,30647.0
-1244.0,18916.0,14668.0,14986.0,-7558.0,16964.0
-852.0,23612.0,14868.0,215.0,-540.0,-6742.0
-2436.0,17000.0,13612.0,-15035.0,-2172.0,-21026.0
-1696.0,8836.0,11116.0,-23220.0,-6588.0,-30406.0
968.0,1704.0,10612.0,-32768.0,-5129.0,-29795.0
2912.0,-12264.0,13636.0,-32768.0,-11853.0,-26388.0
-3004.0,-20204.0,12700.0,-18426.0,-6931.0,-21005.0
3536.0,-28804.0,24328.0,-17523.0,-1294.0,3836.0
916.0,-21956.0,18000.0,16634.0,11442.0,11595.0
-860.0,-12844.0,14020.0,19435.0,11554.0,23314.0
-1372.0,-8736.0,13304.0,22814.0,3971.0,29252.0
-400.0,-1892.0,11192.0,26584.0,10006.0,29488.0
-3540.0,5632.0,9220.0,26010.0,-3997.0,30012.0
-2396.0,20364.0,11924.0,13936.0,-5453.0,19268.0
-1032.0,24000.0,15264.0,2833.0,-947.0,-2739.0
-1340.0,20776.0,12932.0,-13936.0,-2228.0,-20241.0
-2796.0,11112.0,9968.0,-27434.0,-3979.0,-29874.0
648.0,2484.0,9216.0,-32679.0,-7750.0,-32768.0
4128.0,-12832.0,14160.0,-32768.0,-6610.0,-27956.0
-1668.0,-25932.0,17480.0,-16012.0,-6579.0,-18733.0
-1192.0,-23252.0,18720.0,-808.0,576.0,301.0
-1612.0,-19680.0,17528.0,11021.0,6738.0,16126.0
-1084.0,-14932.0,17276.0,19559.0,10349.0,30251.0
-1284.0,-4252.0,9836.0,30742.0,1029.0,29009.0
-2912.0,5444.0,10296.0,18095.0,6251.0,31836.0
-3260.0,14320.0,12168.0,18007.0,-7186.0,19656.0
-1432.0,21240.0,15960.0,3089.0,-2779.0,5951.0
-1020.0,22840.0,14572.0,-7713.0,-1256.0,-20977.0
-2096.0,10472.0,9420.0,-23014.0,-6472.0,-31512.0
3644.0,-2176.0,16764.0,-30496.0,-9330.0,-30027.0
-376.0,-15660.0,17924.0,-26411.0,262.0,-25061.0
-5412.0,-23236.0,16040.0,-7396.0,-1348.0,-8456.0
-3644.0,-18348.0,17412.0,5578.0,2252.0,10066.0
-2648.0,-12716.0,19248.0,11941.0,7592.0,20451.0
-3452.0,-8536.0,15684.0,18371.0,5452.0,31176.0
-1692.0,3100.0,10180.0,19309.0,-4082.0,32767.0
-1472.0,15340.0,13752.0,19056.0,172.0,22105.0
-2036.0,22000.0,13856.0,8221.0,-2050.0,3673.0
-920.0,23280.0,14216.0,-9852.0,-447.0,-15514.0
-2384.0,11680.0,10144.0,-24876.0,-3646.0,-27362.0
-540.0,4392.0,10236.0,-28095.0,-7113.0,-32768.0
4632.0,-11904.0,18128.0,-32768.0,-7099.0,-31444.0
-3324.0,-20296.0,12048.0,-19332.0,-2654.0,-22155.0
-1028.0,-29772.0,22120.0,-9661.0,3717.0,5518.0
-2612.0,-18236.0,15296.0,15712.0,6198.0,15547.0
-3032.0,-11508.0,13656.0,18777.0,4844.0,24431.0
-516.0,-5152.0,14676.0,20679.0,-1669.0,32229.0
-3004.0,5480.0,10016.0,24814.0,3400.0,25067.0
-3040.0,14280.0,15560.0,12413.0,-7666.0,19131.0
-1916.0,19176.0,15860.0,4041.0,427.0,3658.0
-1712.0,19988.0,14464.0,-9353.0,1264.0,-18449.0
-2220.0,11428.0,9444.0,-22031.0,-6868.0,-32768.0
3900.0,-4008.0,15088.0,-32768.0,-11158.0,-32768.0
-516.0,-15280.0,13716.0,-21900.0,-1794.0,-31165.0
-516.0,-22700.0,17400.0,-23826.0,-5201.0,-8266.0
192.0,-24308.0,19976.0,1941.0,1097.0,3436.0
-1880.0,-19500.0,16648.0,13568.0,15835.0,23262.0
-1140.0,-11876.0,14284.0,20721.0,3531.0,32336.0
-2128.0,-708.0,9904.0,25258.0,-1647.0,31180.0
-2904.0,5836.0,10108.0,23212.0,1067.0,27144.0
-2052.0,17456.0,13564.0,18008.0,-9465.0,16164.0
-1124.0,23100.0,16240.0,536.0,-2127.0,321.0
-1476.0,20496.0,12956.0,-14548.0,644.0,-19917.0
-1864.0,9832.0,10720.0,-24471.0,-3475.0,-31998.0
2896.0,-1968.0,13312.0,-29034.0,-8196.0,-32768.0
-872.0,-14532.0,14640.0,-26108.0,217.0,-26452.0
-1028.0,-18616.0,16572.0,-12927.0,-4883.0,-18502.0
-2604.0,-19876.0,17896.0,-3340.0,-932.0,72.0
-1032.0,-19488.0,20712.0,5950.0,4007.0,14558.0
-1628.0,-14240.0,14972.0,16537.0,14299.0,30915.0
-1752.0,-2628.0,11968.0,23243.0,-551.0,28566.0
-2296.0,3372.0,10420.0,15652.0,6217.0,32663.0
-6024.0,15460.0,9676.0,17166.0,-5023.0,17697.0
-2268.0,22108.0,17080.0,3642.0,159.0,-557.0
-2652.0,18156.0,12728.0,-19264.0,-3665.0,-22274.0
-2076.0,6836.0,10364.0,-27177.0,-6217.0,-31388.0
1668.0,-3104.0,13104.0,-30848.0,-4340.0,-32768.0
-308.0,-25412.0,18204.0,-29058.0,1146.0,-16760.0
-4748.0,-27824.0,17952.0,-5369.0,3885.0,4989.0
-3912.0,-17852.0,14340.0,11070.0,10024.0,19004.0
-4320.0,-12672.0,15952.0,19927.0,3035.0,27818.0
-1432.0,1204.0,9592.0,22523.0,-10684.0,32767.0
-2528.0,13844.0,13976.0,14716.0,-5060.0,19353.0
-2272.0,24928.0,19688.0,2990.0,8273.0,-3898.0
-3572.0,15968.0,9968.0,-21116.0,-2894.0,-27790.0
-504.0,3276.0,8260.0,-29495.0,-9785.0,-32768.0
5284.0,-15872.0,16336.0,-32768.0,-5945.0,-26439.0
-3188.0,-29536.0,14124.0,-12825.0,-3581.0,-14957.0
-3548.0,-32384.0,17104.0,1307.0,10926.0,15710.0
-1876.0,-14904.0,14008.0,18307.0,4325.0,24195.0
-3288.0,-9256.0,11204.0,26669.0,-1915.0,29119.0
-1528.0,2188.0,11108.0,21866.0,-130.0,32254.0
-3156.0,13616.0,11888.0,19308.0,-10810.0,17888.0
-2792.0,19856.0,16928.0,6220.0,-3778.0,-2216.0
-2352.0,20712.0,13676.0,-15252.0,-1872.0,-24344.0
-660.0,2908.0,11984.0,-28597.0,-5613.0,-28056.0
2672.0,-5920.0,13440.0,-31412.0,-876.0,-26945.0
-96.0,-18304.0,14284.0,-27405.0,-3639.0,-22936.0
-3732.0,-26524.0,15880.0,-10231.0,-3223.0,-5332.0
-1568.0,-24024.0,16984.0,8121.0,5272.0,12872.0
-1796.0,-16584.0,16452.0,15173.0,9209.0,28386.0
-2124.0,-7076.0,10544.0,29683.0,-51.0,27996.0
-1404.0,4112.0,11520.0,22096.0,-3568.0,24924.0
-4520.0,11780.0,12328.0,20308.0,-5906.0,16412.0
-1640.0,17420.0,16444.0,10197.0,-7557.0,1636.0
-2052.0,19648.0,14256.0,-9124.0,-6321.0,-16668.0
-252.0,12000.0,13980.0,-22963.0,-4821.0,-27719.0
3804.0,-2356.0,15352.0,-31379.0,-5718.0,-30840.0
752.0,-18948.0,17776.0,-29642.0,-5400.0,-16182.0
-2204.0,-29172.0,21836.0,-7598.0,8665.0,4920.0
-3236.0,-17564.0,14520.0,15395.0,13142.0,19325.0
-2964.0,-11160.0,14900.0,15919.0,3812.0,32714.0
56.0,204.0,11736.0,26592.0,-778.0,32767.0
-460.0,17836.0,12572.0,16326.0,-3618.0,27189.0
-436.0,24256.0,17388.0,2992.0,2523.0,-493.0
-1900.0,18536.0,12528.0,-15138.0,-2943.0,-22673.0
-1712.0,7440.0,9428.0,-24794.0,-8028.0,-32768.0
988.0,-4120.0,11416.0,-32768.0,-5325.0,-30085.0
3196.0,-21772.0,19720.0,-32768.0,-11817.0,-17320.0
-4228.0,-28972.0,20332.0,-1929.0,8715.0,4413.0
-3756.0,-18812.0,14760.0,17333.0,12533.0,17538.0
-3644.0,-11228.0,12048.0,19982.0,2477.0,30802.0
-956.0,-564.0,10960.0,25199.0,-4474.0,31362.0
-3228.0,14516.0,12184.0,23976.0,-3929.0,17701.0
-1316.0,20416.0,17652.0,573.0,-2965.0,3688.0
-1728.0,21012.0,13700.0,-14533.0,-4052.0,-23716.0
-2404.0,7132.0,8236.0,-28668.0,-7527.0,-32768.0
3584.0,-6736.0,15460.0,-31797.0,-1469.0,-31786.0
2472.0,-23384.0,18480.0,-30828.0,-8666.0,-15496.0
-5348.0,-26064.0,15552.0,3588.0,3608.0,-158.0
-3304.0,-17420.0,15756.0,8706.0,11435.0,17878.0
-2552.0,-15352.0,19152.0,14314.0,3286.0,30208.0
-1364.0,-1052.0,9728.0,25931.0,-4235.0,30077.0
-3452.0,8296.0,11548.0,14865.0,-4413.0,23813.0
-2748.0,17760.0,17124.0,12199.0,-3677.0,4836.0
-1860.0,21956.0,15752.0,-7957.0,-497.0,-21088.0
-3400.0,8524.0,7940.0,-24166.0,-9091.0,-32768.0
4756.0,-5628.0,14528.0,-28329.0,-12269.0,-32768.0
3812.0,-32768.0,24944.0,-23814.0,-11092.0,-15006.0
-3940.0,-23332.0,16572.0,10901.0,9125.0,3210.0
-2032.0,-15008.0,16452.0,14800.0,13476.0,23699.0
-1248.0,-7612.0,14068.0,24765.0,4132.0,23280.0
196.0,3320.0,14072.0,21008.0,4721.0,31086.0
-4304.0,13120.0,10184.0,16313.0,60.0,22071.0
-1268.0,21028.0,17396.0,2424.0,2967.0,3868.0
-2596.0,22724.0,12492.0,-18355.0,862.0,-22499.0
-2456.0,8868.0,6092.0,-30955.0,-7803.0,-32768.0
7228.0,-9168.0,13308.0,-32768.0,-8685.0,-32768.0
-4484.0,-32260.0,14824.0,-11644.0,-1832.0,-22997.0
-4380.0,-30344.0,18036.0,706.0,2044.0,8207.0
-1380.0,-17844.0,16956.0,14986.0,8840.0,23540.0
-1300.0,-7524.0,12636.0,29851.0,3513.0,24759.0
-2072.0,3408.0,10360.0,23959.0,-1995.0,27612.0
-2572.0,12500.0,15528.0,17795.0,-12.0,18282.0
-2880.0,17876.0,15448.0,1585.0,1771.0,7205.0
-2964.0,21316.0,14228.0,-10270.0,1964.0,-17363.0
-3204.0,8232.0,10156.0,-23311.0,-10038.0,-30219.0
1428.0,600.0,10244.0,-26615.0,-4606.0,-32768.0
1004.0,-25508.0,20172.0,-32768.0,-4005.0,-15685.0
-4652.0,-25056.0,17912.0,3534.0,7529.0,-671.0
-2408.0,-19632.0,17884.0,8141.0,13494.0,24757.0
-3024.0,-9616.0,13284.0,25887.0,-1558.0,26437.0
-1600.0,5884.0,8816.0,21126.0,-843.0,31898.0
-2760.0,15892.0,14584.0,18293.0,-3247.0,17758.0
-1504.0,28000.0,17856.0,-785.0,5224.0,-6352.0
-3376.0,14364.0,9196.0,-21977.0,-6985.0,-31038.0
-632.0,1172.0,9000.0,-22208.0,-11505.0,-32768.0
4292.0,-19332.0,24948.0,-32768.0,-8250.0,-16136.0
-3596.0,-25048.0,19720.0,-2111.0,7365.0,-4532.0
-3660.0,-23468.0,16888.0,9696.0,14627.0,27285.0
-2344.0,-7732.0,12048.0,25774.0,1262.0,30773.0
1088.0,1204.0,13788.0,15659.0,529.0,32767.0
-2964.0,23124.0,8388.0,21957.0,-2444.0,19303.0
-1708.0,25024.0,15996.0,493.0,-1471.0,-3114.0
-532.0,19716.0,12012.0,-15979.0,-6434.0,-29517.0
284.0,9948.0,6580.0,-32081.0,-5622.0,-32768.0
9916.0,-9684.0,15288.0,-32768.0,-13231.0,-32768.0
-2308.0,-32436.0,11924.0,-17729.0,-3880.0,-28077.0
-4056.0,-32768.0,19480.0,-830.0,9893.0,6072.0
-1396.0,-18952.0,13016.0,20389.0,16507.0,22216.0
-28.0,-13308.0,16104.0,21510.0,3221.0,32767.0
2396.0,-1920.0,7372.0,32263.0,-1622.0,32767.0
996.0,12912.0,7596.0,25610.0,-5482.0,32767.0
-560.0,29164.0,13044.0,15744.0,-837.0,8544.0
192.0,25664.0,14952.0,-10115.0,2777.0,-12897.0
-208.0,16756.0,9300.0,-24722.0,-3834.0,-32768.0
584.0,5680.0,6684.0,-30862.0,-7764.0,-32768.0
6492.0,-15432.0,16644.0,-32768.0,-12021.0,-32768.0
-4768.0,-32768.0,19460.0,-14906.0,728.0,-7745.0
-4664.0,-23348.0,16344.0,9089.0,8209.0,13574.0
-984.0,-13016.0,16948.0,16503.0,5700.0,29173.0
-156.0,-4428.0,11172.0,26345.0,-581.0,32767.0
508.0,6392.0,11192.0,18085.0,1967.0,32767.0
-2400.0,23440.0,11992.0,17272.0,-177.0,18438.0
-1636.0,22056.0,13888.0,-475.0,1466.0,-1611.0
-1360.0,21264.0,13468.0,-12204.0,-1538.0,-22478.0
-644.0,10796.0,7360.0,-29758.0,-11297.0,-32768.0
3880.0,-2496.0,8052.0,-32768.0,-12062.0,-32768.0
9044.0,-19280.0,20864.0,-32768.0,-5329.0,-28011.0
-3112.0,-30068.0,16476.0,-5520.0,-5895.0,-20319.0
-2032.0,-27648.0,17480.0,10950.0,8763.0,13770.0
8.0,-15872.0,16124.0,16232.0,13060.0,27069.0
1724.0,-11696.0,13344.0,27515.0,3021.0,32767.0
1176.0,4316.0,5496.0,31487.0,10360.0,32767.0
-2096.0,14152.0,10548.0,22092.0,-1954.0,28713.0
-1840.0,26808.0,11732.0,8632.0,-4684.0,7910.0
-1136.0,25008.0,12664.0,-5799.0,-3069.0,-18536.0
-608.0,15368.0,9176.0,-24688.0,-11832.0,-32768.0
2072.0,1512.0,11328.0,-31547.0,-13193.0,-32768.0
5308.0,-7924.0,11108.0,-29688.0,-11749.0,-32768.0
4052.0,-26716.0,22040.0,-28739.0,-2262.0,-17965.0
-3516.0,-24900.0,16108.0,4475.0,6083.0,-7809.0
-2004.0,-23332.0,18952.0,4450.0,11487.0,26574.0
3180.0,-13848.0,16644.0,22336.0,5670.0,32767.0
-1124.0,-560.0,8372.0,30206.0,8133.0,32767.0
-1856.0,5032.0,10344.0,19185.0,-3269.0,32767.0
-332.0,19260.0,14160.0,19074.0,-1601.0,20299.0
-1868.0,25048.0,13216.0,-1684.0,3445.0,1950.0
-1316.0,22396.0,12888.0,-10469.0,123.0,-21172.0
-1360.0,12008.0,9372.0,-24594.0,-10627.0,-32768.0
2676.0,-3028.0,16376.0,-29694.0,-12955.0,-32768.0
76.0,-13268.0,16292.0,-23897.0,2346.0,-28788.0
-4160.0,-22836.0,18812.0,-15948.0,-505.0,-6463.0
-5108.0,-19828.0,18088.0,2828.0,7982.0,12799.0
-2780.0,-13464.0,17944.0,11357.0,10449.0,27250.0
-3520.0,-3260.0,10052.0,19071.0,129.0,32767.0
-2008.0,3264.0,15416.0,16043.0,-3291.0,32767.0
-2612.0,19112.0,14504.0,11709.0,-2463.0,14339.0
-1568.0,21728.0,16820.0,-3371.0,1072.0,-5663.0
-2364.0,17948.0,11584.0,-15976.0,-4501.0,-29188.0
60.0,6404.0,9792.0,-29269.0,-8206.0,-32768.0
4372.0,-12952.0,15388.0,-32768.0,-2843.0,-32768.0
-3068.0,-32768.0,20472.0,-18603.0,-2542.0,-6794.0
-4272.0,-21268.0,15136.0,14772.0,6093.0,8746.0
-4108.0,-12836.0,15148.0,12685.0,4899.0,26399.0
4.0,-9452.0,12964.0,25858.0,-193.0,31953.0
424.0,5756.0,8144.0,25612.0,-3733.0,32767.0
1104.0,23116.0,13144.0,22717.0,-1903.0,19846.0
-576.0,26300.0,14692.0,-563.0,-286.0,-3745.0
120.0,22952.0,12368.0,-16045.0,360.0,-26429.0
-204.0,8992.0,7596.0,-29925.0,-7029.0,-32768.0
5196.0,-7632.0,12768.0,-32768.0,-14006.0,-32768.0
-1232.0,-27664.0,16884.0,-24190.0,-384.0,-20397.0
-2136.0,-26528.0,20480.0,-5954.0,3749.0,987.0
-2916.0,-20360.0,17788.0,13349.0,7456.0,18391.0
404.0,-14212.0,16272.0,21945.0,6224.0,32767.0
1580.0,-512.0,8196.0,32767.0,154.0,32767.0
96.0,15428.0,7340.0,24388.0,2399.0,32767.0
-56.0,28428.0,15000.0,8350.0,1714.0,10417.0
576.0,29004.0,15352.0,-6913.0,1669.0,-17058.0
-1096.0,14872.0,8032.0,-27566.0,-5239.0,-32471.0
1632.0,3988.0,8352.0,-32768.0,-4935.0,-32768.0
3340.0,-10576.0,9816.0,-31483.0,-10209.0,-32768.0
2856.0,-32212.0,22824.0,-30934.0,-9831.0,-9272.0
-3016.0,-26040.0,16584.0,15285.0,5748.0,5227.0
-2484.0,-17248.0,15764.0,17861.0,17742.0,26720.0
-240.0,-10560.0,13228.0,29624.0,-2768.0,32767.0
1560.0,4468.0,4612.0,29993.0,-2838.0,32767.0
344.0,20372.0,10076.0,27290.0,-2121.0,25610.0
680.0,27308.0,14472.0,2252.0,-729.0,6404.0
212.0,26356.0,13356.0,-12260.0,342.0,-19059.0
-1036.0,13020.0,7476.0,-25772.0,-9427.0,-32768.0
2640.0,4480.0,9808.0,-31172.0,-8332.0,-32768.0
5072.0,-14608.0,15128.0,-32768.0,-9481.0,-30181.0
-708.0,-20892.0,14860.0,-9661.0,-4690.0,-25368.0
-1300.0,-25836.0,19436.0,-7221.0,-1746.0,-2217.0
392.0,-20216.0,21080.0,10028.0,4455.0,14638.0
1412.0,-14760.0,16380.0,23904.0,13317.0,32767.0
1320.0,-3764.0,9516.0,32767.0,4740.0,32767.0
-224.0,7004.0,10104.0,19826.0,8402.0,32767.0
-2372.0,21040.0,10116.0,18970.0,-386.0,25152.0
52.0,27744.0,13948.0,3683.0,1426.0,2688.0
272.0,25352.0,11300.0,-15817.0,-2677.0,-26400.0
-1196.0,11396.0,6812.0,-30439.0,-6272.0,-32768.0
4824.0,1132.0,9028.0,-32134.0,-10604.0,-32768.0
6028.0,-16996.0,14132.0,-32768.0,-8491.0,-29955.0
2216.0,-25208.0,18792.0,-6887.0,-13371.0,-25688.0
-2636.0,-31944.0,18868.0,5298.0,7897.0,5721.0
1076.0,-20800.0,16320.0,20281.0,8849.0,28780.0
3064.0,-15132.0,15372.0,25250.0,12530.0,32767.0
3580.0,3004.0,2572.0,32767.0,2767.0,32767.0
1180.0,14136.0,6420.0,23542.0,3151.0,32767.0
1500.0,27544.0,11880.0,11260.0,-709.0,15177.0
1488.0,30572.0,13384.0,-6726.0,1964.0,-8534.0
496.0,19080.0,9688.0,-22399.0,-2084.0,-29338.0
1028.0,9692.0,7124.0,-28055.0,-7109.0,-32768.0
4904.0,-11016.0,14904.0,-32768.0,-7436.0,-32768.0
-1280.0,-17572.0,12940.0,-20138.0,-5633.0,-27963.0
-2932.0,-25356.0,19292.0,-10590.0,-181.0,-4047.0
-3452.0,-20960.0,20160.0,2767.0,3694.0,12125.0
-1548.0,-17484.0,17644.0,16775.0,9565.0,30755.0
308.0,-3284.0,9264.0,25104.0,2149.0,32767.0
1792.0,3716.0,12228.0,18584.0,4618.0,32767.0
-1872.0,16212.0,12640.0,19749.0,-131.0,25060.0
-2244.0,19340.0,12716.0,7370.0,1621.0,12306.0
300.0,28100.0,14556.0,-7828.0,6230.0,-10245.0
-1724.0,16584.0,8952.0,-18022.0,-3632.0,-32768.0
168.0,6992.0,9724.0,-23337.0,-12721.0,-32768.0
2220.0,-6324.0,11328.0,-32768.0,-5396.0,-32768.0
1524.0,-21368.0,19068.0,-24879.0,-7915.0,-25623.0
-1124.0,-15620.0,17076.0,-6263.0,-6498.0,-19098.0
-3180.0,-25184.0,20480.0,2341.0,1739.0,1623.0
-1200.0,-20696.0,19472.0,14992.0,11205.0,25258.0
256.0,-10040.0,13020.0,29028.0,3412.0,30762.0
-772.0,-272.0,10020.0,24665.0,5058.0,32767.0
-3748.0,9432.0,8744.0,21693.0,-3241.0,31090.0
-40.0,23336.0,14084.0,9557.0,-5833.0,16138.0
432.0,28848.0,14528.0,-7892.0,811.0,-16308.0
-2872.0,13944.0,9412.0,-21553.0,-6516.0,-29904.0
1888.0,6824.0,8328.0,-32230.0,-8699.0,-32768.0
4128.0,-18084.0,17816.0,-32768.0,-3973.0,-23840.0
-2404.0,-21272.0,15428.0,-3931.0,-7305.0,-22208.0
-3000.0,-29612.0,21196.0,-2486.0,4246.0,11213.0
-1892.0,-14984.0,17388.0,15986.0,13146.0,21125.0
-1788.0,-11748.0,14788.0,19614.0,7222.0,32767.0
1056.0,3628.0,8508.0,23399.0,-7153.0,32767.0
-1028.0,15656.0,13464.0,16648.0,6407.0,29686.0
-3092.0,22020.0,12840.0,5586.0,-2577.0,7060.0
-452.0,25672.0,15464.0,-3718.0,-1031.0,-15496.0
-296.0,16064.0,9868.0,-22302.0,-7338.0,-32768.0
2736.0,5008.0,7808.0,-31876.0,-8574.0,-32768.0
5000.0,-15068.0,13892.0,-32768.0,-2885.0,-29788.0
-880.0,-32768.0,21880.0,-18055.0,-3252.0,-8127.0
-4224.0,-25052.0,12600.0,18481.0,4475.0,8116.0
-2860.0,-14880.0,15384.0,17009.0,7201.0,27086.0
372.0,-9848.0,12928.0,32125.0,-3815.0,32767.0
2476.0,9592.0,5708.0,30874.0,-4998.0,32767.0
488.0,25476.0,12828.0,12620.0,1886.0,19528.0
360.0,24612.0,15380.0,998.0,-682.0,-7364.0
708.0,22084.0,11724.0,-18147.0,-5164.0,-28523.0
-236.0,5648.0,8616.0,-26320.0,-11970.0,-32768.0
4796.0,-3580.0,13064.0,-32768.0,-10207.0,-32768.0
1480.0,-26152.0,20892.0,-29840.0,-1154.0,-17147.0
-3724.0,-24652.0,18500.0,733.0,4532.0,708.0
-2408.0,-21852.0,19160.0,7290.0,11814.0,28812.0
-480.0,-7900.0,14036.0,24202.0,-134.0,27966.0
1276.0,-596.0,12112.0,22262.0,-37.0,32767.0
2156.0,9176.0,13232.0,24789.0,2838.0,32738.0
-1708.0,24996.0,12204.0,10285.0,1782.0,11128.0
-1128.0,22844.0,12008.0,-3676.0,-4171.0,-6020.0
560.0,21640.0,12424.0,-16661.0,-3979.0,-28643.0
1508.0,7080.0,8764.0,-31464.0,-10051.0,-32768.0
5068.0,-4588.0,14168.0,-32768.0,-6008.0,-32768.0
2364.0,-22808.0,18188.0,-32768.0,-3980.0,-19946.0
-2860.0,-20888.0,15312.0,1148.0,1468.0,-11700.0
-3764.0,-18616.0,16472.0,-291.0,629.0,7537.0
-1192.0,-19324.0,21004.0,12614.0,5446.0,28053.0
460.0,-10024.0,14288.0,28231.0,1218.0,30749.0
-1248.0,2848.0,8988.0,25739.0,-4035.0,31321.0
432.0,9800.0,13776.0,20648.0,1477.0,27279.0
-2184.0,21752.0,13384.0,12083.0,1141.0,7522.0
-724.0,23632.0,14276.0,-2554.0,-2002.0,-9705.0
56.0,17872.0,10888.0,-19902.0,-4569.0,-32110.0
944.0,5616.0,8292.0,-29508.0,-11254.0,-32768.0
8032.0,-11284.0,20716.0,-32768.0,-9403.0,-28679.0
-800.0,-24512.0,17804.0,-15353.0,-3385.0,-21827.0
-3744.0,-30864.0,19096.0,977.0,11007.0,10366.0
-2404.0,-15648.0,16288.0,17706.0,10626.0,20964.0
-492.0,-8572.0,14412.0,23473.0,890.0,32767.0
2024.0,2164.0,11048.0,25658.0,-55.0,32767.0
-1104.0,14472.0,11584.0,19061.0,4014.0,27682.0
-2160.0,22188.0,13028.0,10646.0,-1665.0,7942.0
-528.0,21684.0,14752.0,-4211.0,-4202.0,-8149.0
-868.0,17008.0,13000.0,-21729.0,-1234.0,-22891.0
-1960.0,7936.0,8512.0,-26555.0,-9793.0,-32768.0
2628.0,-9228.0,15244.0,-32768.0,-10890.0,-28554.0
136.0,-18396.0,19504.0,-16092.0,-3389.0,-18448.0
-3720.0,-27396.0,23584.0,-6401.0,6970.0,5647.0
-3056.0,-19448.0,17016.0,17767.0,10352.0,24603.0
-408.0,-6072.0,12788.0,26511.0,1291.0,31192.0
-448.0,7796.0,8972.0,22145.0,-4324.0,32106.0
236.0,22920.0,14008.0,17438.0,-1375.0,12933.0
1988.0,30316.0,17008.0,-7756.0,3899.0,-12739.0
-724.0,13736.0,7840.0,-26476.0,-6951.0,-32498.0
1700.0,4620.0,6736.0,-32768.0,-8618.0,-32768.0
7172.0,-20812.0,19776.0,-32768.0,-4575.0,-22176.0
312.0,-28664.0,21464.0,-11822.0,-2911.0,-10356.0
-3252.0,-22688.0,13776.0,14079.0,4955.0,7977.0
-884.0,-13880.0,16124.0,17570.0,2859.0,21700.0
-260.0,-8232.0,14832.0,27322.0,-2662.0,27969.0
-676.0,4620.0,7940.0,31969.0,588.0,31215.0
2276.0,16436.0,13644.0,20013.0,2317.0,26028.0
-224.0,25392.0,14328.0,2174.0,1181.0,3951.0
244.0,25004.0,12916.0,-13431.0,-2831.0,-23656.0
-1964.0,8028.0,7388.0,-29837.0,-7497.0,-32130.0
3196.0,1748.0,9312.0,-29138.0,-11931.0,-32768.0
3792.0,-22968.0,21116.0,-32768.0,-3324.0,-16843.0
-356.0,-22432.0,19956.0,-14977.0,1517.0,-3818.0
-2900.0,-21116.0,17940.0,5238.0,2568.0,7523.0
-1328.0,-14332.0,17528.0,13627.0,2524.0,20931.0
-356.0,-6512.0,14940.0,23159.0,4247.0,25950.0
-60.0,1948.0,14096.0,17779.0,342.0,30654.0
-1996.0,11680.0,14128.0,17903.0,579.0,17742.0
-3808.0,14216.0,14360.0,9123.0,-2464.0,5107.0
-1248.0,19236.0,16312.0,-2770.0,158.0,-10124.0
-1628.0,14252.0,11472.0,-19374.0,-5352.0,-30206.0
1432.0,-956.0,12756.0,-29753.0,-12656.0,-28883.0
4064.0,-11928.0,18384.0,-29830.0,-10986.0,-21390.0
-2640.0,-31528.0,20588.0,-15487.0,9132.0,-5870.0
-3532.0,-17676.0,15440.0,8472.0,6117.0,11645.0
-1900.0,-11072.0,16104.0,12649.0,4879.0,20827.0
-2664.0,-4760.0,14568.0,19510.0,814.0,21324.0
-2992.0,5356.0,14036.0,17534.0,-2226.0,18929.0
-3048.0,9512.0,16668.0,12358.0,-5420.0,11149.0
-1536.0,16260.0,18600.0,251.0,317.0,-942.0
-2964.0,13540.0,13780.0,-12395.0,-3947.0,-21249.0
400.0,7012.0,10788.0,-21637.0,-9027.0,-29442.0
4988.0,-7056.0,17420.0,-32768.0,-1258.0,-24255.0
88.0,-25848.0,19960.0,-14456.0,-5607.0,-16977.0
-1856.0,-24700.0,17468.0,5298.0,7210.0,7151.0
-1092.0,-16036.0,17360.0,12780.0,9238.0,21069.0
-1848.0,-8116.0,14076.0,23099.0,3190.0,25078.0
-912.0,2784.0,11096.0,21900.0,924.0,28315.0
-2112.0,10152.0,14160.0,12067.0,-3419.0,22320.0
-1516.0,18156.0,17360.0,3426.0,-2732.0,5652.0
-1848.0,18764.0,13636.0,-8610.0,-2734.0,-19976.0
-1900.0,8788.0,9636.0,-20758.0,-10002.0,-32109.0
5368.0,-2864.0,13344.0,-23088.0,-16152.0,-32768.0
3664.0,-21864.0,22284.0,-23838.0,-5721.0,-19385.0
1184.0,-20892.0,21672.0,-5326.0,2314.0,-2755.0
-236.0,-21516.0,19712.0,10145.0,10797.0,16796.0
1964.0,-11556.0,17524.0,21430.0,8026.0,28144.0
1088.0,264.0,12676.0,25667.0,3929.0,29091.0
1716.0,11720.0,12968.0,15351.0,9138.0,28350.0
-2400.0,19232.0,16072.0,1777.0,6249.0,8885.0
-2552.0,19800.0,14096.0,-7728.0,2884.0,-13492.0
-2656.0,11216.0,10388.0,-19885.0,-7933.0,-30130.0
3312.0,-3016.0,12900.0,-24981.0,-12186.0,-32768.0
3308.0,-25460.0,27272.0,-27082.0,-5593.0,-10246.0
-5192.0,-21048.0,15832.0,10885.0,7302.0,6321.0
-2828.0,-9544.0,15504.0,13385.0,4788.0,18380.0
-2204.0,-6400.0,16304.0,17480.0,-1476.0,24540.0
1108.0,5076.0,14828.0,25259.0,-3360.0,25003.0
-1020.0,20844.0,14332.0,6305.0,3133.0,12552.0
-192.0,23824.0,15932.0,-1605.0,2058.0,-16704.0
-1140.0,13192.0,9032.0,-23674.0,-6277.0,-32768.0
5432.0,-388.0,12784.0,-32298.0,-13597.0,-32768.0
2584.0,-24160.0,16916.0,-32768.0,-4383.0,-22132.0
-400.0,-32768.0,24688.0,-6118.0,9018.0,5771.0
-1288.0,-17856.0,15944.0,19336.0,9441.0,22821.0
888.0,-10936.0,16036.0,17932.0,3978.0,32767.0
2800.0,-436.0,11592.0,30732.0,414.0,32767.0
792.0,16308.0,11592.0,19305.0,1486.0,28796.0
76.0,24460.0,15200.0,5071.0,4287.0,8412.0
120.0,27456.0,12560.0,-8641.0,5111.0,-20827.0
-664.0,13036.0,7400.0,-23136.0,-8008.0,-32768.0
5112.0,544.0,6948.0,-31839.0,-10948.0,-32768.0
4016.0,-26772.0,18084.0,-32768.0,-4170.0,-24310.0
-2304.0,-32768.0,21516.0,-7460.0,3430.0,-240.0
-2220.0,-21148.0,16388.0,14257.0,6506.0,19286.0
68.0,-14664.0,16192.0,20287.0,1914.0,32767.0
1396.0,-1708.0,8464.0,32767.0,-2528.0,32767.0
3284.0,17068.0,10992.0,22757.0,-1551.0,29194.0
-220.0,26696.0,15604.0,5703.0,1469.0,1412.0
-480.0,23132.0,12360.0,-15581.0,-46.0,-23020.0
28.0,10592.0,8524.0,-24929.0,-9689.0,-32768.0
7928.0,-8248.0,16936.0,-32768.0,-8737.0,-32768.0
-1528.0,-28016.0,17416.0,-17649.0,-5445.0,-21859.0
-5344.0,-31344.0,18912.0,1555.0,10802.0,11263.0
-2748.0,-15380.0,14376.0,20487.0,7661.0,25303.0
-20.0,-8392.0,13060.0,23027.0,-2219.0,32767.0
2736.0,5208.0,11964.0,25821.0,-4921.0,32767.0
1708.0,20576.0,13932.0,16587.0,2787.0,23217.0
-628.0,26040.0,14052.0,-1193.0,806.0,-2698.0
704.0,25304.0,11032.0,-15576.0,-4606.0,-32756.0
1028.0,6368.0,5260.0,-32768.0,-12021.0,-32768.0
8096.0,-12252.0,14568.0,-32768.0,-12709.0,-32456.0
168.0,-32768.0,24376.0,-23243.0,1789.0,-9624.0
-4476.0,-23604.0,15716.0,9980.0,5594.0,7309.0
-2028.0,-15488.0,16656.0,15279.0,5321.0,24593.0
244.0,-7388.0,14928.0,26961.0,-320.0,29708.0
1296.0,5836.0,11664.0,21785.0,-2118.0,32767.0
44.0,18644.0,14408.0,16258.0,2277.0,18076.0
-1312.0,23484.0,15948.0,-2640.0,2151.0,-3728.0
-1060.0,21088.0,10264.0,-14878.0,-7494.0,-31471.0
1744.0,6188.0,8024.0,-30965.0,-12083.0,-32768.0
5660.0,-12576.0,15776.0,-32768.0,-4660.0,-26610.0
396.0,-32768.0,22756.0,-20008.0,2091.0,-5036.0
-4172.0,-25760.0,13284.0,15205.0,7055.0,10697.0
-1724.0,-15048.0,17052.0,20446.0,7165.0,26941.0
648.0,-5032.0,11572.0,30731.0,-3172.0,32767.0
3296.0,9508.0,11556.0,25025.0,-2578.0,32767.0
-588.0,27192.0,13460.0,8455.0,4124.0,11485.0
-664.0,25308.0,15672.0,-6138.0,210.0,-13115.0
-1252.0,12960.0,9068.0,-24207.0,-9931.0,-29673.0
-1764.0,-11472.0,19200.0,-23516.0,-975.0,-14938.0
-3624.0,-16216.0,21928.0,-9967.0,5528.0,-5429.0
-9332.0,-21512.0,17600.0,2822.0,6611.0,15190.0
-5248.0,-10120.0,15148.0,23022.0,2.0,27539.0
-896.0,7268.0,10968.0,24815.0,-2216.0,28110.0
1824.0,26252.0,11840.0,14353.0,-1413.0,10765.0
1332.0,27008.0,12332.0,-3864.0,-5555.0,-7987.0
1588.0,20952.0,10784.0,-18250.0,-8536.0,-31026.0
3072.0,5628.0,10340.0,-31325.0,-11694.0,-32768.0
1372.0,-7340.0,12884.0,-32768.0,-4912.0,-30475.0
3360.0,-19996.0,19836.0,-26528.0,-8423.0,-20201.0
-3032.0,-23036.0,17480.0,-7401.0,1986.0,-3837.0
-2600.0,-16788.0,17304.0,6783.0,-267.0,6899.0
-460.0,-13092.0,19828.0,12441.0,3287.0,20169.0
748.0,-5824.0,16528.0,23535.0,2358.0,22596.0
-988.0,2844.0,13240.0,19460.0,422.0,23956.0
-836.0,7144.0,15820.0,17935.0,1371.0,18231.0
-648.0,16236.0,15496.0,8654.0,41.0,7164.0
308.0,23428.0,14860.0,-9245.0,1501.0,-16044.0
-1768.0,13320.0,7456.0,-27494.0,-5080.0,-29620.0
4380.0,-6912.0,13880.0,-32768.0,-11167.0,-25632.0
-2024.0,-24280.0,17220.0,-17135.0,3233.0,-13416.0
-3664.0,-26388.0,18492.0,4371.0,6389.0,5504.0
-3564.0,-16508.0,16464.0,17832.0,1634.0,16460.0
-1108.0,-6820.0,13660.0,29976.0,1403.0,25612.0
2004.0,5756.0,11532.0,29628.0,-2785.0,26552.0
708.0,22880.0,11964.0,12894.0,2059.0,15024.0
-500.0,23392.0,14912.0,223.0,-2250.0,-11462.0
-488.0,15604.0,10752.0,-21303.0,-10135.0,-28017.0
2616.0,-6332.0,17912.0,-29875.0,-8769.0,-23090.0
-476.0,-6528.0,16236.0,-21654.0,-1515.0,-17723.0
-1812.0,-26500.0,25976.0,-15839.0,5102.0,5443.0
-4656.0,-16252.0,16796.0,15484.0,5435.0,14038.0
-1112.0,-7104.0,15520.0,23118.0,3108.0,25591.0
408.0,5528.0,12844.0,24124.0,-1200.0,26802.0
60.0,20912.0,12568.0,12780.0,-536.0,14412.0
836.0,27200.0,15252.0,-1991.0,3871.0,-12004.0
-1124.0,15152.0,8652.0,-24734.0,-7258.0,-29524.0
2800.0,3564.0,7472.0,-32768.0,-9421.0,-32768.0
5520.0,-23816.0,21944.0,-32768.0,1166.0,-20221.0
-4752.0,-31144.0,19312.0,-87.0,8314.0,1035.0
-4620.0,-18500.0,14844.0,14220.0,6012.0,18206.0
52.0,-13036.0,17484.0,22386.0,2319.0,29248.0
1580.0,3876.0,10280.0,28832.0,-1597.0,31567.0
176.0,19968.0,12128.0,18319.0,1988.0,19419.0
-1056.0,21736.0,15192.0,2548.0,-1229.0,-1281.0
-36.0,20524.0,13364.0,-10455.0,-7209.0,-26311.0
1324.0,1800.0,14496.0,-30897.0,-4946.0,-26916.0
-1208.0,-7184.0,13396.0,-27346.0,-1912.0,-25118.0
-4896.0,-26612.0,21724.0,-13662.0,3416.0,441.0
-6428.0,-16032.0,16144.0,7807.0,4344.0,12129.0
-2016.0,-11208.0,19252.0,18030.0,738.0,23187.0
-1292.0,1192.0,12924.0,25049.0,-5787.0,24057.0
484.0,15368.0,13876.0,16304.0,-2281.0,18504.0
1432.0,23528.0,17216.0,3265.0,417.0,-3786.0
520.0,20860.0,11876.0,-18095.0,-2856.0,-28525.0
1052.0,1092.0,11740.0,-28830.0,-7373.0,-32768.0
1616.0,-13552.0,17804.0,-28349.0,-1117.0,-21895.0
-2168.0,-24332.0,21312.0,-14825.0,3867.0,-3886.0
-5460.0,-21144.0,17708.0,8858.0,5213.0,14256.0
-2228.0,-10968.0,15548.0,20157.0,3008.0,25679.0
-1080.0,-1248.0,11948.0,24964.0,-3495.0,30508.0
976.0,15040.0,12352.0,22533.0,-3326.0,22490.0
1392.0,24920.0,17016.0,3780.0,2514.0,-1537.0
-80.0,20960.0,11956.0,-16951.0,-3929.0,-25253.0
1148.0,9580.0,7116.0,-29147.0,-7893.0,-32768.0
11260.0,-7680.0,15820.0,-32768.0,-12832.0,-32768.0
-1572.0,-32768.0,17280.0,-23222.0,-2870.0,-20551.0
-4528.0,-28768.0,15056.0,5399.0,8417.0,8710.0
-768.0,-14236.0,16328.0,12467.0,5315.0,21109.0
-572.0,-10788.0,17116.0,20292.0,-138.0,28025.0
1148.0,220.0,11316.0,28306.0,-2202.0,30771.0
-472.0,13712.0,13928.0,16274.0,1060.0,20616.0
172.0,21736.0,17776.0,3579.0,3149.0,-2980.0
-1016.0,16468.0,11812.0,-17904.0,-4155.0,-25899.0
2856.0,2456.0,13668.0,-23966.0,-8577.0,-32768.0
832.0,-12516.0,14204.0,-32768.0,376.0,-24707.0
-1352.0,-32768.0,24292.0,-21315.0,4205.0,2064.0
-4240.0,-19828.0,14172.0,15853.0,5915.0,10944.0
-2188.0,-11968.0,15812.0,17036.0,-228.0,28068.0
-100.0,-2672.0,12500.0,22705.0,-3427.0,30951.0
468.0,10660.0,13852.0,19349.0,-2888.0,26162.0
968.0,23900.0,18764.0,6719.0,3890.0,691.0
-668.0,19060.0,12040.0,-16986.0,-3242.0,-26616.0
1560.0,9464.0,7912.0,-27181.0,-6995.0,-32768.0
9216.0,-12116.0,14720.0,-32768.0,-6538.0,-32768.0
-3288.0,-32768.0,20968.0,-12268.0,-356.0,-8890.0
-3256.0,-22080.0,13456.0,12403.0,6048.0,9206.0
-1272.0,-16892.0,17796.0,16031.0,1050.0,26620.0
-116.0,-8504.0,14904.0,28663.0,334.0,29760.0
-660.0,6432.0,9100.0,25802.0,378.0,31115.0
-160.0,17584.0,15656.0,17761.0,-5547.0,15357.0
484.0,28420.0,16304.0,-352.0,2367.0,-13553.0
-1748.0,12720.0,8364.0,-28573.0,-4556.0,-30152.0
3212.0,-2328.0,12136.0,-32768.0,-12831.0,-31678.0
4748.0,-22724.0,19536.0,-32768.0,-5420.0,-16094.0
-6220.0,-32768.0,20248.0,3954.0,10812.0,7299.0
-4276.0,-16356.0,11672.0,17630.0,7594.0,22882.0
-976.0,-7404.0,13636.0,19954.0,-3395.0,30078.0
28.0,2344.0,14340.0,25218.0,97.0,27394.0
-96.0,19176.0,13040.0,13946.0,1039.0,21058.0
-204.0,24976.0,17372.0,1292.0,4451.0,-8752.0
-1540.0,17508.0,9536.0,-18760.0,-5472.0,-30558.0
2436.0,3588.0,10672.0,-29138.0,-5636.0,-32768.0
5068.0,-19876.0,22520.0,-32768.0,-4785.0,-23694.0
-3568.0,-27692.0,19396.0,548.0,3447.0,-7238.0
-5360.0,-23852.0,15684.0,8345.0,8195.0,18252.0
-1744.0,-13012.0,15424.0,20733.0,-2988.0,26900.0
452.0,4736.0,11220.0,28708.0,-3798.0,27820.0
-332.0,17000.0,13400.0,16112.0,721.0,16765.0
-3444.0,22348.0,14932.0,-495.0,-1374.0,-8955.0
-3556.0,13408.0,11592.0,-14643.0,-10904.0,-28315.0
2256.0,-2872.0,17480.0,-24214.0,-10080.0,-27711.0
-64.0,-23040.0,24764.0,-26758.0,6448.0,-4256.0
-6060.0,-20820.0,17668.0,8766.0,6035.0,13160.0
-5088.0,-10112.0,13452.0,15815.0,6631.0,25739.0
-3504.0,-3084.0,13184.0,21045.0,-4050.0,28882.0
-1532.0,18416.0,12216.0,21485.0,1948.0,16762.0
-2908.0,24460.0,15504.0,1776.0,-1861.0,-5161.0
-2384.0,19880.0,11060.0,-14439.0,-6646.0,-25828.0
1516.0,6820.0,11924.0,-23662.0,-12508.0,-32768.0
408.0,-12204.0,15564.0,-31990.0,-2184.0,-26927.0
-1180.0,-26196.0,23116.0,-15691.0,924.0,-5860.0
-5948.0,-20124.0,16388.0,10190.0,3850.0,7334.0
-2368.0,-12284.0,17804.0,14457.0,4965.0,24103.0
-1824.0,-1112.0,13564.0,21873.0,2107.0,27491.0
-2300.0,14376.0,12504.0,15851.0,-2867.0,20327.0
-3124.0,28132.0,13460.0,-5660.0,3202.0,-9769.0
-3920.0,13472.0,8984.0,-17965.0,-9966.0,-30102.0
3948.0,172.0,9612.0,-27348.0,-16886.0,-32768.0
1788.0,-28364.0,21860.0,-32768.0,454.0,-13824.0
-3700.0,-31924.0,18820.0,-2136.0,13332.0,12253.0
-1860.0,-19548.0,15920.0,18855.0,4432.0,26120.0
-1216.0,-5468.0,10940.0,31776.0,2283.0,27411.0
-464.0,8056.0,10084.0,23865.0,1269.0,31773.0
-1628.0,21212.0,13264.0,14988.0,-2017.0,12977.0
-2052.0,23032.0,15612.0,-2863.0,2805.0,-8497.0
-1364.0,19008.0,9380.0,-23097.0,-5027.0,-32042.0
1272.0,3484.0,5432.0,-32768.0,-12265.0,-32768.0
6588.0,-20492.0,17772.0,-32768.0,-2765.0,-22813.0
-2392.0,-32768.0,19636.0,-3613.0,1927.0,-7202.0
-3796.0,-24108.0,14404.0,14062.0,5626.0,16229.0
240.0,-15724.0,16656.0,19860.0,2934.0,30528.0
-180.0,-6708.0,10032.0,32767.0,829.0,32639.0
1568.0,10220.0,5920.0,28835.0,-4981.0,32767.0
2280.0,27952.0,12756.0,17059.0,17.0,17817.0
148.0,25112.0,13628.0,-1249.0,-3692.0,-7691.0
2596.0,23728.0,10820.0,-24315.0,-2472.0,-29870.0
4300.0,9816.0,5032.0,-32768.0,-1938.0,-32768.0
8348.0,-10452.0,10344.0,-32768.0,-11590.0,-32768.0
-524.0,-32768.0,13800.0,-32768.0,-400.0,-19722.0
-2296.0,-32768.0,14680.0,-1337.0,6225.0,5016.0
-1848.0,-24420.0,13056.0,21488.0,5108.0,23467.0
1612.0,-14636.0,13848.0,29153.0,5544.0,32767.0
3236.0,604.0,5920.0,32767.0,-4567.0,32767.0
920.0,13728.0,6360.0,26113.0,-8815.0,32767.0
1188.0,25896.0,14684.0,16077.0,-2471.0,9165.0
2184.0,28940.0,15004.0,-4890.0,-656.0,-10792.0
2600.0,18924.0,7772.0,-27868.0,-7105.0,-32768.0
4144.0,3316.0,8544.0,-28523.0,-10067.0,-32768.0
6468.0,-19616.0,19652.0,-32768.0,-8131.0,-21279.0
-2812.0,-21612.0,16280.0,-6488.0,-4821.0,-14779.0
-3100.0,-28436.0,21328.0,-3804.0,6945.0,15677.0
-968.0,-16264.0,16716.0,20287.0,10089.0,28912.0
272.0,-3616.0,11080.0,26295.0,-3239.0,32521.0
-52.0,9400.0,12928.0,20158.0,-5538.0,29703.0
208.0,21004.0,15128.0,13514.0,-6541.0,8871.0
1232.0,25448.0,15384.0,-6066.0,1467.0,-18048.0
-280.0,10164.0,10040.0,-23470.0,-9212.0,-31188.0
5168.0,-5720.0,20004.0,-32768.0,-3318.0,-24811.0
-1016.0,-20480.0,19912.0,-24343.0,3726.0,-14036.0
-6412.0,-26256.0,17880.0,-3214.0,7019.0,11920.0
-3856.0,-14612.0,14720.0,14987.0,5677.0,23819.0
-2036.0,-1616.0,12404.0,26803.0,-5067.0,25860.0
-1260.0,10812.0,11280.0,24499.0,-12993.0,21675.0
3812.0,20564.0,19576.0,3978.0,-1773.0,13078.0
696.0,22348.0,14760.0,-9656.0,4732.0,-18133.0
1048.0,7072.0,13804.0,-21139.0,-10386.0,-30795.0
652.0,-7792.0,16648.0,-29259.0,1076.0,-21566.0
-2968.0,-20552.0,21804.0,-18398.0,9150.0,-5408.0
-6948.0,-17444.0,15992.0,5670.0,4350.0,7967.0
-4076.0,-8920.0,15796.0,12438.0,2407.0,23470.0
-2928.0,1232.0,14232.0,17450.0,-5330.0,22683.0
-688.0,13452.0,15020.0,11271.0,-7785.0,16687.0
124.0,24112.0,17256.0,2817.0,3750.0,-16597.0
-1592.0,9148.0,10832.0,-22241.0,-7467.0,-29555.0
3600.0,452.0,13364.0,-21744.0,-10468.0,-32768.0
3976.0,-23352.0,22960.0,-32768.0,193.0,-10717.0
-3812.0,-26328.0,16892.0,4781.0,5418.0,1233.0
-2096.0,-18592.0,15256.0,11384.0,8778.0,23665.0
-540.0,-9480.0,15168.0,25089.0,355.0,27694.0
-412.0,3320.0,11380.0,27269.0,-1930.0,28512.0
-996.0,15236.0,13068.0,16767.0,-2914.0,21436.0
52.0,22316.0,17548.0,4567.0,3672.0,-1513.0
-1576.0,18608.0,12060.0,-17680.0,-1681.0,-24902.0
-304.0,5408.0,10152.0,-20713.0,-10423.0,-32768.0
5116.0,-12656.0,23388.0,-32768.0,467.0,-23250.0
-4904.0,-24976.0,18652.0,-10136.0,1482.0,-8138.0
-4888.0,-18560.0,15824.0,7579.0,1913.0,10730.0
-3128.0,-13700.0,17912.0,15007.0,9319.0,26594.0
-2272.0,172.0,14276.0,20943.0,-76.0,27723.0
-1088.0,14172.0,12776.0,15836.0,-6384.0,19221.0
-2188.0,25252.0,15672.0,1882.0,4214.0,-7207.0
-2964.0,13980.0,11764.0,-15909.0,-5715.0,-24727.0
2396.0,4792.0,13060.0,-22025.0,-11790.0,-32768.0
-1140.0,-27944.0,22928.0,-32768.0,3757.0,-8579.0
-4528.0,-23184.0,17060.0,8526.0,5054.0,5883.0
-4184.0,-14720.0,15476.0,12895.0,5084.0,24741.0
-1340.0,-5568.0,14080.0,23035.0,-194.0,31947.0
52.0,9800.0,10604.0,21562.0,-882.0,31035.0
-352.0,23000.0,15116.0,6940.0,-1039.0,13130.0
-564.0,24836.0,15696.0,-4298.0,2123.0,-12726.0
-1448.0,13408.0,9420.0,-19582.0,-6790.0,-32768.0
1772.0,-3908.0,14652.0,-23726.0,-9316.0,-32768.0
1480.0,-20772.0,25836.0,-26579.0,-3516.0,-15390.0
-9824.0,-25688.0,15340.0,1659.0,9229.0,5354.0
-4572.0,-12052.0,14380.0,11428.0,2014.0,22756.0
-3076.0,-3044.0,14748.0,18530.0,-836.0,25662.0
-1992.0,8244.0,13588.0,16136.0,-3117.0,26407.0
-764.0,19980.0,16844.0,7757.0,-3139.0,9525.0
-1024.0,25192.0,14248.0,-4957.0,4252.0,-18797.0
-1380.0,10892.0,8552.0,-22767.0,-7898.0,-32768.0
3592.0,-5752.0,15980.0,-31240.0,-6735.0,-32768.0
-136.0,-28164.0,20516.0,-29428.0,-1232.0,-14604.0
-6624.0,-29508.0,16452.0,6372.0,5930.0,8552.0
-3928.0,-16668.0,14160.0,15079.0,2464.0,24556.0
-1532.0,-7500.0,12248.0,24983.0,128.0,32767.0
1600.0,5616.0,12452.0,25673.0,-1949.0,32767.0
-788.0,22124.0,10908.0,15917.0,127.0,19399.0
-1108.0,23724.0,15264.0,1660.0,-955.0,-3336.0
-656.0,21088.0,10644.0,-16761.0,-4285.0,-28817.0
436.0,5480.0,9500.0,-28834.0,-9845.0,-32768.0
6256.0,-9012.0,17116.0,-32768.0,-5950.0,-32768.0
-4852.0,-31428.0,17920.0,-27794.0,9491.0,-9287.0
-7460.0,-24168.0,13732.0,2437.0,4903.0,7712.0
-3904.0,-16692.0,15496.0,11753.0,796.0,23160.0
-2588.0,-9072.0,14020.0,23965.0,-1744.0,29490.0
-1380.0,3668.0,8288.0,23679.0,-7581.0,32767.0
-436.0,18904.0,15244.0,19351.0,-4829.0,14318.0
-212.0,25884.0,17344.0,-1535.0,2075.0,-8629.0
-816.0,15684.0,11604.0,-20252.0,-4643.0,-29227.0
2968.0,6476.0,9632.0,-26385.0,-8597.0,-32768.0
7696.0,-17068.0,19764.0,-32768.0,-2288.0,-29008.0
-3924.0,-32768.0,20224.0,-7345.0,1724.0,-5385.0
-3668.0,-20052.0,13808.0,11491.0,7926.0,15548.0
-1360.0,-14972.0,17536.0,14186.0,4032.0,28706.0
-236.0,-3836.0,11044.0,30348.0,-2517.0,30204.0
-1532.0,10168.0,10912.0,21115.0,-223.0,28540.0
-1072.0,20408.0,15444.0,5882.0,-2980.0,16200.0
-508.0,26936.0,15464.0,165.0,2027.0,-17109.0
-1388.0,12752.0,10612.0,-20246.0,-9297.0,-32039.0
3024.0,420.0,14324.0,-24726.0,-8693.0,-32768.0
1932.0,-16808.0,19388.0,-26477.0,-240.0,-26723.0
-4124.0,-26932.0,18644.0,-10879.0,3170.0,-4102.0
-3760.0,-17944.0,16324.0,9414.0,9016.0,15105.0
-2308.0,-13488.0,20020.0,13720.0,9744.0,28613.0
-1752.0,-2988.0,9816.0,24399.0,-1135.0,32767.0
-72.0,11748.0,9300.0,21891.0,-942.0,32767.0
-1628.0,23528.0,15232.0,8705.0,-1105.0,10237.0
-1348.0,26768.0,13924.0,-9160.0,448.0,-18419.0
-1848.0,11080.0,8992.0,-21920.0,-7760.0,-32768.0
4012.0,-1032.0,15624.0,-30428.0,-10644.0,-32768.0
200.0,-14584.0,15884.0,-29876.0,1885.0,-27595.0
-4164.0,-28072.0,17292.0,-12362.0,759.0,-6469.0
-3956.0,-21636.0,17692.0,6873.0,3814.0,11739.0
-3640.0,-13036.0,17040.0,13581.0,5660.0,24282.0
-1360.0,-5224.0,13328.0,20790.0,2017.0,32767.0
-1916.0,6964.0,10844.0,19968.0,-3353.0,29324.0
-2020.0,19956.0,13404.0,13516.0,-1330.0,13423.0
-2396.0,27816.0,15016.0,-9330.0,2057.0,-17141.0
-3484.0,10384.0,8828.0,-18516.0,-10238.0,-32768.0
5180.0,-2360.0,16736.0,-29578.0,-13634.0,-32768.0
-2004.0,-25328.0,17196.0,-22192.0,-5153.0,-20888.0
-4552.0,-29556.0,18440.0,-4209.0,6567.0,9737.0
-3412.0,-16820.0,15232.0,14113.0,6385.0,23333.0
-2452.0,-8600.0,14580.0,21822.0,1625.0,31468.0
8.0,3716.0,10816.0,24195.0,-4502.0,32767.0
4.0,17804.0,12520.0,14779.0,-6214.0,25146.0
-812.0,23700.0,16752.0,4719.0,68.0,-211.0
364.0,23064.0,13036.0,-17558.0,796.0,-24210.0
112.0,4388.0,11760.0,-22765.0,-11286.0,-32768.0
832.0,-3048.0,13100.0,-27189.0,-3818.0,-31993.0
-796.0,-25332.0,22100.0,-27165.0,-126.0,-11521.0
-6660.0,-28824.0,17780.0,2398.0,11925.0,14304.0
-3668.0,-13260.0,14380.0,16263.0,5282.0,28919.0
-1840.0,-3968.0,12000.0,17903.0,-3881.0,32767.0
1380.0,11968.0,12624.0,23600.0,1392.0,30249.0
-2252.0,21912.0,15508.0,8772.0,1816.0,11170.0
-1440.0,23268.0,14608.0,-1645.0,-464.0,-7977.0
-1908.0,19388.0,10016.0,-13428.0,-7009.0,-32410.0
1060.0,5352.0,9988.0,-21136.0,-13995.0,-32768.0
3664.0,-7692.0,14176.0,-32768.0,-5841.0,-32768.0
-600.0,-25724.0,19208.0,-16367.0,-9942.0,-19385.0
-4332.0,-28952.0,17804.0,2179.0,5400.0,8177.0
-2148.0,-15216.0,15516.0,14357.0,8786.0,23077.0
-252.0,-7768.0,16708.0,23360.0,3601.0,29350.0
-1852.0,4200.0,8960.0,24150.0,-1669.0,29465.0
88.0,17096.0,14880.0,12387.0,-2266.0,23359.0
-984.0,25716.0,16476.0,5007.0,2686.0,-7654.0
-1516.0,17808.0,10816.0,-20109.0,-3693.0,-27674.0
1224.0,5996.0,9432.0,-23640.0,-10176.0,-32768.0
5780.0,-15336.0,18844.0,-32768.0,-6574.0,-22517.0
-2056.0,-25388.0,19020.0,32.0,-4193.0,-16505.0
-3452.0,-22732.0,17604.0,7488.0,713.0,6148.0
-1696.0,-12704.0,16564.0,16574.0,-824.0,16741.0
-1312.0,-9216.0,16484.0,21104.0,7893.0,29230.0
-1176.0,5688.0,10592.0,23411.0,-191.0,30059.0
-1328.0,15636.0,13832.0,10351.0,-2807.0,20911.0
-1000.0,23024.0,17832.0,1549.0,5104.0,-3786.0
-2748.0,17116.0,10596.0,-19562.0,-2520.0,-25933.0
-376.0,6364.0,8304.0,-22288.0,-12510.0,-32768.0
7396.0,-9436.0,17368.0,-32768.0,-8776.0,-29631.0
1128.0,-32768.0,22940.0,-19399.0,-779.0,-13232.0
-4864.0,-25648.0,13712.0,12934.0,8864.0,10830.0
-1144.0,-14748.0,16356.0,14334.0,5895.0,27821.0
-264.0,-9952.0,13620.0,26237.0,2740.0,32767.0
1740.0,5760.0,5952.0,30304.0,-6181.0,32767.0
2908.0,24604.0,14460.0,16305.0,905.0,23753.0
-368.0,24516.0,14856.0,-2012.0,49.0,-3490.0
52.0,21940.0,10920.0,-18660.0,-785.0,-25183.0
4.0,8956.0,9412.0,-26293.0,-5631.0,-32768.0
6136.0,-5028.0,10152.0,-32226.0,-10382.0,-32768.0
-2392.0,-30972.0,16484.0,-30034.0,-668.0,-18912.0
-4344.0,-31948.0,18148.0,547.0,5262.0,6387.0
-3748.0,-19660.0,15340.0,16652.0,5181.0,21568.0
232.0,-11464.0,15508.0,27892.0,2400.0,32150.0
1796.0,3156.0,9776.0,28162.0,768.0,32767.0
1472.0,19624.0,11524.0,17355.0,-4717.0,26823.0
80.0,26584.0,16524.0,7479.0,-2755.0,-5223.0
384.0,21784.0,11772.0,-20113.0,-2667.0,-25319.0
-24.0,7088.0,8544.0,-26824.0,-6661.0,-32768.0
4800.0,-7308.0,12448.0,-32768.0,-6321.0,-32768.0
-3916.0,-32768.0,21576.0,-26454.0,3629.0,-3644.0
-3828.0,-20836.0,16292.0,8799.0,3509.0,5335.0
-3268.0,-17928.0,17932.0,15857.0,4870.0,27275.0
804.0,-7260.0,13436.0,28006.0,387.0,32767.0
296.0,8140.0,8144.0,25517.0,-6280.0,32767.0
412.0,24084.0,11368.0,22045.0,-739.0,16002.0
1428.0,32767.0,15112.0,-1398.0,4995.0,-13469.0
664.0,17996.0,8992.0,-26814.0,-4489.0,-29669.0
3752.0,9224.0,5784.0,-32768.0,-4856.0,-32768.0
7088.0,-14192.0,10540.0,-32768.0,-1623.0,-32768.0
-648.0,-32768.0,19384.0,-20761.0,-8962.0,-11331.0
-1312.0,-25400.0,15484.0,11412.0,2180.0,5333.0
-2772.0,-21620.0,16764.0,13749.0,7208.0,30809.0
1156.0,-9972.0,13296.0,31247.0,3527.0,32767.0
980.0,3492.0,8972.0,23910.0,-1623.0,32767.0
928.0,15008.0,9888.0,23791.0,-6507.0,28488.0
732.0,25596.0,13644.0,10944.0,-2421.0,3772.0
2028.0,29324.0,15680.0,-11042.0,4871.0,-20040.0
-940.0,11464.0,6816.0,-32768.0,-6471.0,-32768.0
4792.0,1052.0,7624.0,-32768.0,-8835.0,-32768.0
3572.0,-27816.0,18536.0,-32768.0,-4556.0,-21912.0
16.0,-23472.0,16288.0,-7172.0,-220.0,-5528.0
-2300.0,-25768.0,17464.0,1415.0,5151.0,13680.0
-1940.0,-16888.0,16508.0,17674.0,5649.0,26360.0
-1552.0,-8100.0,13040.0,25096.0,344.0,30123.0
-1932.0,1628.0,8804.0,22631.0,-3908.0,32767.0
-548.0,19248.0,12124.0,21184.0,-3356.0,17201.0
228.0,29892.0,15620.0,672.0,2718.0,-14400.0
-2896.0,12656.0,10592.0,-21637.0,-10071.0,-29091.0
3932.0,1148.0,16576.0,-21880.0,-11982.0,-32768.0
-492.0,-23356.0,20232.0,-32768.0,1931.0,-18346.0
-3304.0,-21328.0,16520.0,139.0,2081.0,-3363.0
-4384.0,-19380.0,16080.0,11414.0,7514.0,13928.0
-2776.0,-9604.0,16736.0,19911.0,187.0,22448.0
-1848.0,-824.0,10544.0,26036.0,-1149.0,28641.0
-1568.0,13620.0,12948.0,16647.0,-322.0,23273.0
-728.0,20992.0,15900.0,7477.0,837.0,4930.0
-1348.0,23020.0,12168.0,-14337.0,-824.0,-20439.0
-2936.0,9160.0,8284.0,-18882.0,-13305.0,-32768.0
6864.0,2180.0,9088.0,-31877.0,-15865.0,-32768.0
4412.0,-32768.0,23504.0,-32768.0,-2126.0,-11030.0
1516.0,-23160.0,16388.0,1432.0,2834.0,-2485.0
-2024.0,-23448.0,16096.0,11045.0,7200.0,15490.0
400.0,-14676.0,17288.0,20433.0,4763.0,31352.0
-208.0,-4244.0,9060.0,32767.0,2245.0,32767.0
192.0,9876.0,7496.0,22177.0,-6148.0,32767.0
1160.0,23656.0,14548.0,13740.0,-368.0,13876.0
528.0,27088.0,15872.0,-2068.0,1854.0,-13554.0
-456.0,16168.0,10464.0,-22012.0,-6468.0,-32768.0
3876.0,5556.0,8532.0,-30006.0,-10362.0,-32768.0
4316.0,-16892.0,14796.0,-32768.0,-6109.0,-30881.0
1068.0,-31980.0,22192.0,-21126.0,-1586.0,-2180.0
-120.0,-20720.0,17248.0,10297.0,4219.0,9640.0
-1936.0,-17328.0,18132.0,12858.0,10533.0,32735.0
564.0,-5512.0,12348.0,29306.0,-933.0,32767.0
24.0,9488.0,9160.0,19347.0,-4025.0,32767.0
388.0,21788.0,15848.0,12227.0,324.0,12002.0
-264.0,26448.0,14644.0,-11417.0,1981.0,-18351.0
-84.0,13596.0,9344.0,-22200.0,-7691.0,-32768.0
8260.0,-5296.0,10992.0,-32768.0,-17247.0,-32768.0
-1108.0,-32768.0,19264.0,-29035.0,3107.0,-13890.0
-1724.0,-27720.0,16488.0,-1764.0,6504.0,8763.0
-808.0,-19332.0,17572.0,15617.0,4233.0,26182.0
-472.0,-8320.0,13844.0,30625.0,-446.0,26540.0
252.0,5996.0,7772.0,27706.0,-4135.0,32379.0
1480.0,19356.0,13572.0,16723.0,-1881.0,22782.0
744.0,26564.0,17392.0,357.0,2142.0,-9497.0
-1864.0,16812.0,11168.0,-20628.0,-5330.0,-28679.0
3768.0,8252.0,7788.0,-29278.0,-8308.0,-32768.0
7476.0,-16796.0,16612.0,-32768.0,-4613.0,-29248.0
-1488.0,-32768.0,19484.0,-17387.0,5194.0,-7295.0
-1912.0,-23788.0,15192.0,6212.0,5163.0,10031.0
-2040.0,-20268.0,17504.0,11615.0,6725.0,30210.0
72.0,-11384.0,12768.0,29278.0,991.0,32767.0
-220.0,5628.0,6676.0,26431.0,-3667.0,32767.0
1096.0,17908.0,14148.0,17048.0,-8278.0,23388.0
1388.0,21196.0,18120.0,4117.0,-2085.0,161.0
640.0,21880.0,16264.0,-11738.0,3816.0,-22244.0
176.0,12496.0,7488.0,-27646.0,-1524.0,-32768.0
3908.0,-6392.0,9524.0,-32757.0,-5356.0,-32768.0
3832.0,-29296.0,24824.0,-32768.0,2363.0,-7643.0
-4116.0,-22824.0,13988.0,10818.0,3255.0,630.0
-4380.0,-16228.0,15208.0,10509.0,5194.0,17989.0
-1336.0,-9800.0,17288.0,17933.0,-1819.0,26682.0
-1108.0,2268.0,9952.0,25319.0,-3772.0,30559.0
220.0,13460.0,15056.0,14342.0,-5137.0,23766.0
-268.0,21812.0,19080.0,2706.0,3835.0,-2719.0
-3176.0,16408.0,12356.0,-17128.0,-1361.0,-21963.0
444.0,8632.0,11412.0,-18792.0,-6237.0,-32768.0
9044.0,-7348.0,18208.0,-32768.0,-6685.0,-32116.0
-4596.0,-32768.0,18252.0,-7813.0,-202.0,-18233.0
-2668.0,-23420.0,16176.0,2865.0,6107.0,9345.0
-2044.0,-15664.0,17376.0,12958.0,920.0,20880.0
-388.0,-8852.0,16168.0,23049.0,2233.0,27225.0
-836.0,2264.0,10724.0,22922.0,-2512.0,30931.0
-172.0,10444.0,14436.0,16212.0,-4714.0,28131.0
-524.0,19564.0,15660.0,9402.0,-144.0,7809.0
432.0,24032.0,16964.0,-4780.0,6141.0,-16023.0
-1792.0,12960.0,9224.0,-22674.0,-5810.0,-32768.0
3780.0,432.0,12944.0,-25852.0,-8998.0,-32768.0
4740.0,-13384.0,18504.0,-32768.0,669.0,-27180.0
-2160.0,-27976.0,18224.0,-14968.0,-4742.0,-12325.0
-3844.0,-21052.0,15136.0,3670.0,5852.0,9159.0
-1288.0,-16772.0,19944.0,7443.0,11225.0,27090.0
-2096.0,-8288.0,12248.0,22971.0,-1682.0,26377.0
-2128.0,5820.0,8204.0,20140.0,-6791.0,32767.0
-192.0,12240.0,17720.0,15077.0,-8780.0,17704.0
-1204.0,15396.0,19152.0,3099.0,-2648.0,2497.0
-1432.0,13300.0,17692.0,-6230.0,3086.0,-10848.0
-1812.0,10804.0,14684.0,-16059.0,5184.0,-22454.0
-816.0,1712.0,14388.0,-22028.0,-1794.0,-29614.0
-1300.0,-4340.0,11532.0,-22006.0,-1846.0,-30580.0
372.0,-18208.0,17880.0,-27201.0,-2545.0,-12150.0
-724.0,-19908.0,19016.0,-5065.0,-3901.0,-3790.0
-1964.0,-18656.0,18244.0,4521.0,2834.0,8004.0
-456.0,-16152.0,19916.0,10078.0,9074.0,25899.0
-1612.0,-7300.0,12356.0,20644.0,2785.0,22891.0
-2736.0,1808.0,12292.0,25267.0,1094.0,24501.0
-4416.0,10068.0,13328.0,16565.0,-3162.0,16424.0
-2596.0,16416.0,17848.0,11926.0,702.0,2113.0
-3340.0,19116.0,14884.0,-10029.0,-557.0,-18782.0
-3056.0,9640.0,11432.0,-17925.0,-9935.0,-31187.0
4004.0,-1756.0,14476.0,-30235.0,-11692.0,-32768.0
944.0,-14848.0,13652.0,-29420.0,-6649.0,-22485.0
2336.0,-20528.0,19312.0,-12841.0,-9650.0,-8950.0
816.0,-25300.0,20876.0,1236.0,3056.0,5388.0
728.0,-18900.0,18388.0,11572.0,16927.0,25773.0
656.0,-10768.0,14780.0,24090.0,5914.0,27973.0
544.0,64.0,9800.0,27639.0,5309.0,32767.0
-1724.0,7452.0,12928.0,20452.0,2577.0,29155.0
-3772.0,16048.0,11148.0,15358.0,-1159.0,19712.0
-2168.0,20764.0,14364.0,8039.0,-1404.0,2188.0
-916.0,23136.0,14268.0,-8686.0,-2708.0,-20560.0
-1428.0,13828.0,9856.0,-21915.0,-8835.0,-32768.0
5588.0,-1588.0,14916.0,-32768.0,-16237.0,-31394.0
-1788.0,-12040.0,8592.0,-32768.0,-5380.0,-24739.0
4456.0,-19960.0,20856.0,-21872.0,-11931.0,-10560.0
1372.0,-28188.0,24900.0,-3445.0,2784.0,4568.0
588.0,-16972.0,17716.0,16138.0,12789.0,20109.0
792.0,-11784.0,14228.0,24985.0,10378.0,30171.0
680.0,136.0,8984.0,32767.0,-98.0,30583.0
-1980.0,10204.0,8760.0,28677.0,-1203.0,26752.0
-2188.0,20196.0,11480.0,18824.0,-4651.0,14250.0
72.0,26520.0,15032.0,449.0,-585.0,-3067.0
-100.0,21680.0,10780.0,-15904.0,-5035.0,-26964.0
-904.0,9488.0,8096.0,-30415.0,-11033.0,-32768.0
4152.0,-1476.0,12216.0,-32768.0,-10833.0,-31043.0
2840.0,-18216.0,17704.0,-32768.0,-9220.0,-18451.0
1220.0,-20936.0,20772.0,-8678.0,-5197.0,-9884.0
-68.0,-27168.0,22768.0,1316.0,6473.0,15993.0
1436.0,-16336.0,17416.0,19125.0,13310.0,29159.0
1528.0,-4144.0,9932.0,32368.0,5824.0,32767.0
-2532.0,8476.0,6884.0,22657.0,-937.0,32767.0
-576.0,19704.0,13960.0,19867.0,-2157.0,15029.0
-384.0,25524.0,14904.0,309.0,-667.0,-4930.0
-720.0,19048.0,12424.0,-16575.0,-5406.0,-25404.0
784.0,10740.0,9056.0,-27152.0,-7590.0,-32768.0
5232.0,-4104.0,13796.0,-32768.0,-3436.0,-30509.0
1004.0,-19764.0,13828.0,-32632.0,-10752.0,-22640.0
268.0,-30420.0,20712.0,-12065.0,-2104.0,-513.0
-1284.0,-22456.0,16612.0,15155.0,10744.0,14776.0
428.0,-15568.0,17400.0,17734.0,8707.0,31694.0
320.0,-4280.0,9232.0,31003.0,1383.0,32767.0
932.0,7800.0,10020.0,23741.0,-1257.0,32767.0
-904.0,21684.0,13252.0,17150.0,-5956.0,15493.0
-636.0,23936.0,15648.0,2651.0,-2217.0,-6142.0
-936.0,20060.0,10224.0,-19626.0,-4671.0,-27151.0
564.0,7352.0,9804.0,-29034.0,-9177.0,-32768.0
6912.0,-3216.0,14996.0,-32768.0,-5605.0,-32768.0
1840.0,-24976.0,15004.0,-32178.0,-1926.0,-23629.0
-3036.0,-30644.0,17092.0,-6433.0,5817.0,457.0
-1720.0,-23004.0,17832.0,9919.0,9362.0,23698.0
792.0,-15204.0,15956.0,19107.0,2228.0,32767.0
-1228.0,744.0,4744.0,32767.0,-2768.0,31837.0
1484.0,10852.0,10952.0,26491.0,-1735.0,31552.0
-876.0,23112.0,14120.0,14127.0,-4516.0,9146.0
-1844.0,27712.0,14184.0,-1802.0,-1697.0,-13992.0
-352.0,15644.0,11048.0,-20521.0,-8433.0,-32768.0
2796.0,7636.0,8152.0,-31713.0,-12968.0,-32768.0
5140.0,-16540.0,16908.0,-32768.0,-4566.0,-24409.0
1712.0,-25792.0,19948.0,-12565.0,-6985.0,-13301.0
-3572.0,-25832.0,17312.0,8685.0,2524.0,9025.0
32.0,-16560.0,19052.0,17180.0,14716.0,28645.0
140.0,-5396.0,12480.0,28617.0,3363.0,28952.0
-1380.0,6472.0,8416.0,22373.0,1402.0,32767.0
152.0,16688.0,12188.0,17652.0,-6504.0,24782.0
-148.0,26732.0,16144.0,4215.0,954.0,-179.0
-1272.0,21788.0,11380.0,-17243.0,-1663.0,-23722.0
-212.0,9608.0,9708.0,-21648.0,-7592.0,-32768.0
6660.0,-2936.0,15404.0,-32768.0,-9692.0,-32565.0
652.0,-20328.0,17508.0,-24839.0,-2842.0,-25308.0
-4408.0,-30076.0,19056.0,-7668.0,4360.0,3417.0
-2500.0,-18472.0,18564.0,9318.0,8032.0,19818.0
692.0,-12100.0,19324.0,18427.0,4540.0,30292.0
-1412.0,168.0,8816.0,26176.0,2181.0,31919.0
-1104.0,9764.0,9656.0,20391.0,-6066.0,32767.0
984.0,20976.0,16336.0,13496.0,-62.0,14022.0
-16.0,27288.0,15144.0,-2098.0,3940.0,-11664.0
-1936.0,16036.0,8960.0,-20347.0,-5816.0,-28879.0
1260.0,9040.0,9028.0,-26654.0,-10290.0,-32768.0
6568.0,-7264.0,16808.0,-32768.0,-6034.0,-32768.0
-904.0,-28920.0,19316.0,-26474.0,-4754.0,-15408.0
-2676.0,-21668.0,17432.0,2802.0,1725.0,-674.0
-1844.0,-20256.0,20136.0,8055.0,7359.0,20995.0
-596.0,-13564.0,16036.0,25346.0,6027.0,30101.0
220.0,40.0,8188.0,28527.0,1017.0,32767.0
1260.0,12916.0,11408.0,21505.0,647.0,32767.0
-1444.0,24268.0,12988.0,8081.0,398.0,9113.0
-1720.0,24604.0,14280.0,-3473.0,-524.0,-10620.0
-1300.0,16988.0,11296.0,-20720.0,-5413.0,-27708.0
652.0,7420.0,9152.0,-28127.0,-10100.0,-32768.0
2456.0,-13848.0,14416.0,-32768.0,-2355.0,-22782.0
-4656.0,-28744.0,21292.0,-23386.0,2504.0,3338.0
-4780.0,-19156.0,15704.0,4163.0,351.0,8446.0
-4964.0,-18068.0,16604.0,14616.0,4122.0,25095.0
-2056.0,-6840.0,12076.0,32767.0,-744.0,28475.0
616.0,6632.0,8576.0,27253.0,-8404.0,32585.0
2192.0,26164.0,11736.0,22063.0,-6279.0,15048.0
1668.0,30780.0,14884.0,835.0,-1738.0,-12187.0
-52.0,18504.0,8608.0,-25522.0,-5084.0,-29444.0
2540.0,7060.0,10072.0,-28164.0,-6613.0,-32768.0
7112.0,-9512.0,15184.0,-32768.0,-4669.0,-32768.0
-1200.0,-26612.0,20408.0,-16598.0,-7240.0,-18099.0
-2460.0,-23484.0,19804.0,465.0,1446.0,3336.0
-1928.0,-16500.0,18780.0,13353.0,7301.0,18711.0
-496.0,-12136.0,16788.0,18774.0,6817.0,31660.0
8.0,940.0,9920.0,25602.0,-642.0,32767.0
432.0,9644.0,11332.0,18347.0,-2598.0,32767.0
452.0,25180.0,13604.0,13430.0,-1501.0,11858.0
548.0,30436.0,13972.0,-4525.0,5166.0,-15816.0
-1784.0,14156.0,9320.0,-21948.0,-11416.0,-32768.0
2016.0,7464.0,8384.0,-27223.0,-8597.0,-32768.0
10332.0,-10640.0,18964.0,-32768.0,-14578.0,-29763.0
-500.0,-27576.0,20832.0,-21222.0,-4751.0,-15209.0
-1656.0,-27548.0,19612.0,7264.0,10607.0,9638.0
-2192.0,-12528.0,15460.0,14941.0,7476.0,22473.0
-780.0,-6072.0,15656.0,20564.0,3876.0,26302.0
-1168.0,2496.0,11672.0,20081.0,5443.0,30693.0
-1336.0,11092.0,14476.0,20346.0,-3583.0,17893.0
-3812.0,17568.0,13376.0,5206.0,-1361.0,7047.0
-1852.0,26012.0,13160.0,-9939.0,2573.0,-18637.0
-1996.0,11548.0,8144.0,-24390.0,-12857.0,-32768.0
4460.0,-1508.0,7596.0,-32768.0,-16139.0,-32768.0
6616.0,-29240.0,22676.0,-32768.0,-11364.0,-13976.0
696.0,-28272.0,19404.0,4862.0,7266.0,4.0
-1272.0,-20292.0,16884.0,11960.0,15416.0,27944.0
-656.0,-9388.0,14800.0,27454.0,4336.0,23236.0
-1368.0,2008.0,9296.0,26632.0,3034.0,30459.0
-1716.0,13296.0,12284.0,18569.0,-2540.0,22107.0
-2552.0,23436.0,14192.0,4965.0,1411.0,890.0
-3532.0,18860.0,11860.0,-16403.0,-7470.0,-20628.0
-1256.0,11828.0,9276.0,-21721.0,-11526.0,-32768.0
7308.0,-7172.0,17340.0,-32768.0,-14713.0,-27096.0
-440.0,-26280.0,15084.0,-30844.0,-4356.0,-17467.0
276.0,-31600.0,20556.0,-3394.0,7182.0,12479.0
-2236.0,-16328.0,13912.0,17841.0,10589.0,20556.0
-3120.0,-8488.0,13604.0,20404.0,3256.0,25054.0
-2364.0,2628.0,11940.0,24692.0,-652.0,24535.0
-2828.0,11712.0,13652.0,15917.0,-6363.0,12902.0
-2708.0,21704.0,14456.0,-6886.0,1187.0,-6509.0
-2888.0,11432.0,12540.0,-17649.0,-10550.0,-24286.0
4484.0,3248.0,12992.0,-31319.0,-10876.0,-32768.0
5984.0,-23796.0,19824.0,-32768.0,1504.0,-26431.0
-1440.0,-32768.0,17296.0,-2544.0,6650.0,665.0
-824.0,-20752.0,13436.0,10638.0,11383.0,22809.0
232.0,-14156.0,18220.0,15771.0,2874.0,30252.0
-1352.0,-2336.0,10228.0,32767.0,3348.0,21018.0
-3584.0,8364.0,11112.0,16779.0,-2750.0,25175.0
-3672.0,19068.0,14088.0,22621.0,-1360.0,-5779.0
-4724.0,16348.0,13440.0,-10249.0,-6656.0,-14137.0
-1736.0,12068.0,11656.0,-20913.0,-8045.0,-27659.0
3388.0,-5988.0,18348.0,-32768.0,-9760.0,-16813.0
-468.0,-19708.0,15640.0,-31610.0,-2580.0,-14195.0
-3976.0,-31652.0,18692.0,-12123.0,13258.0,16678.0
-4352.0,-16524.0,12536.0,17795.0,4954.0,16529.0
-5928.0,-11400.0,13124.0,15948.0,3333.0,25035.0
-3124.0,-40.0,10592.0,21845.0,-2959.0,26239.0
-3004.0,12676.0,14592.0,15470.0,-6843.0,18243.0
-3308.0,23672.0,16024.0,308.0,5686.0,-12389.0
-5236.0,11648.0,10892.0,-14583.0,-13714.0,-29972.0
3764.0,284.0,14736.0,-30425.0,-10767.0,-32768.0
4544.0,-21328.0,17416.0,-32768.0,-5446.0,-24615.0
-4180.0,-31776.0,16428.0,-5284.0,674.0,1580.0
-2968.0,-20876.0,14368.0,7626.0,13146.0,21439.0
-2724.0,-12864.0,15704.0,19073.0,3654.0,25649.0
-3028.0,-1292.0,9592.0,29993.0,-5571.0,22062.0
-5388.0,6480.0,10748.0,26650.0,-8138.0,15386.0
-2404.0,13940.0,16244.0,15037.0,-4980.0,10060.0
-2104.0,24356.0,16924.0,-5634.0,6225.0,-13277.0
-3388.0,8824.0,10692.0,-24919.0,-6088.0,-24175.0
1392.0,5932.0,10008.0,-32768.0,-1039.0,-32768.0
6068.0,-20208.0,18700.0,-32768.0,-7802.0,-23785.0
-4052.0,-31688.0,17584.0,76.0,5626.0,-4903.0
-5252.0,-20184.0,12256.0,10323.0,6664.0,17258.0
-2504.0,-14204.0,15672.0,13040.0,-836.0,26710.0
-2292.0,-6168.0,12084.0,26648.0,-1002.0,26750.0
-2644.0,5172.0,11076.0,22337.0,-4949.0,28044.0
-1048.0,16172.0,16404.0,14152.0,-4727.0,15326.0
-2904.0,23212.0,15216.0,-837.0,679.0,-12833.0
-3224.0,13020.0,12216.0,-16747.0,-10827.0,-28197.0
836.0,3160.0,12292.0,-24252.0,-8602.0,-32768.0
3416.0,-14156.0,19120.0,-32768.0,-2024.0,-18513.0
-4984.0,-25204.0,15132.0,-8319.0,-3329.0,-9717.0
-2980.0,-26328.0,19856.0,2260.0,9997.0,20909.0
-3068.0,-13624.0,13540.0,19038.0,4795.0,27019.0
-1736.0,-2768.0,12112.0,23779.0,934.0,31152.0
-2200.0,11080.0,10988.0,21941.0,-3924.0,24610.0
-2056.0,20808.0,15896.0,8013.0,-698.0,6550.0
-3268.0,23384.0,12752.0,-14929.0,-1723.0,-20930.0
-1312.0,10556.0,9168.0,-19516.0,-11848.0,-32768.0
7596.0,-8632.0,15576.0,-32768.0,-13490.0,-31880.0
-1356.0,-29480.0,16212.0,-16928.0,-10327.0,-21103.0
-1160.0,-32768.0,19396.0,3474.0,8316.0,10811.0
-2220.0,-18652.0,13776.0,21134.0,6228.0,24995.0
-912.0,-10016.0,13280.0,27000.0,3984.0,30885.0
-584.0,4876.0,7848.0,27219.0,-917.0,32767.0
1460.0,20336.0,14392.0,14061.0,-3165.0,24978.0
-716.0,31012.0,14088.0,-1146.0,7491.0,-11939.0
-3024.0,16372.0,10628.0,-17784.0,-9579.0,-32768.0
2672.0,4140.0,6588.0,-29623.0,-14062.0,-32768.0
7996.0,-19108.0,20640.0,-32768.0,-8934.0,-21279.0
-1688.0,-32636.0,19840.0,-12698.0,283.0,553.0
-1440.0,-24908.0,17512.0,12407.0,15499.0,24946.0
-1980.0,-11612.0,13388.0,23955.0,4377.0,28940.0
-48.0,-2072.0,10664.0,23980.0,1803.0,32767.0
340.0,13748.0,9340.0,21326.0,-3700.0,32767.0
520.0,27512.0,14932.0,8422.0,103.0,5874.0
-104.0,26116.0,11980.0,-17458.0,-4426.0,-23910.0
-184.0,10932.0,8620.0,-24903.0,-10158.0,-32768.0
9736.0,-7060.0,14440.0,-32768.0,-14652.0,-32768.0
1240.0,-29876.0,18420.0,-21991.0,-7680.0,-27897.0
-1788.0,-31240.0,17564.0,-70.0,7656.0,7560.0
-556.0,-20280.0,16996.0,14589.0,12045.0,24734.0
-628.0,-10024.0,16808.0,24049.0,2574.0,28467.0
-1548.0,2408.0,8428.0,27994.0,-482.0,30819.0
-1204.0,13332.0,11060.0,15208.0,-6446.0,29698.0
900.0,25452.0,18004.0,9112.0,2426.0,-490.0
-1828.0,19996.0,10788.0,-18899.0,-4402.0,-25146.0
-1244.0,7512.0,9680.0,-20160.0,-8432.0,-32768.0
7956.0,-9112.0,18400.0,-32768.0,-17014.0,-32768.0
-3052.0,-32768.0,20560.0,-14845.0,6882.0,-7636.0
-2660.0,-23544.0,17352.0,5240.0,13905.0,17603.0
-1624.0,-14972.0,16796.0,17922.0,4772.0,27434.0
-2492.0,-2332.0,9344.0,27142.0,2369.0,31263.0
-1600.0,9632.0,10516.0,17168.0,666.0,32767.0
-200.0,23836.0,14164.0,8902.0,-2315.0,15374.0
-1440.0,26604.0,11992.0,-10929.0,-1985.0,-20271.0
-4240.0,9360.0,8860.0,-14610.0,-17603.0,-32768.0
4076.0,616.0,12916.0,-23667.0,-15777.0,-32768.0
2604.0,-19552.0,21212.0,-31256.0,-2331.0,-20918.0
-1892.0,-24680.0,20892.0,-6633.0,1842.0,-3842.0
-2648.0,-18080.0,18060.0,5212.0,8427.0,13922.0
-3280.0,-11816.0,18492.0,13536.0,9138.0,25375.0
-2120.0,-1368.0,14944.0,18488.0,3127.0,26322.0
-3916.0,6896.0,12872.0,9906.0,3733.0,24783.0
-2704.0,13624.0,14600.0,5244.0,-5116.0,11464.0
-1808.0,28312.0,13284.0,-11041.0,2485.0,-16792.0
-1976.0,9396.0,7336.0,-26563.0,-12271.0,-32768.0
4276.0,-5832.0,12736.0,-32768.0,-15367.0,-32768.0
4608.0,-32768.0,28064.0,-32363.0,2310.0,-10026.0
-984.0,-24612.0,12164.0,18131.0,9583.0,12541.0
-2380.0,-18584.0,13552.0,18358.0,8776.0,29907.0
-1952.0,-6008.0,10608.0,32767.0,4047.0,26881.0
-1344.0,9592.0,9168.0,19918.0,3233.0,32767.0
-1784.0,22416.0,12924.0,14187.0,-3997.0,12980.0
-2056.0,26504.0,11924.0,-11211.0,-347.0,-13680.0
-2952.0,11204.0,10620.0,-12840.0,-14926.0,-32768.0
4784.0,-1928.0,17912.0,-30050.0,-14135.0,-31511.0
-2124.0,-18152.0,15720.0,-30331.0,-625.0,-20233.0
804.0,-17016.0,18004.0,-8677.0,-8173.0,-8763.0
-1784.0,-27940.0,23436.0,6269.0,10520.0,15667.0
-584.0,-12372.0,16192.0,19402.0,11199.0,27056.0
-2892.0,-3680.0,8692.0,28356.0,2745.0,32189.0
1128.0,10244.0,13032.0,17437.0,-1105.0,32767.0
-1800.0,24948.0,11788.0,6332.0,-902.0,9417.0
-1704.0,24568.0,12224.0,-8647.0,-1934.0,-19472.0
-2360.0,9944.0,11440.0,-19079.0,-12634.0,-32768.0
3396.0,-1344.0,14760.0,-32768.0,-9848.0,-30825.0
-1448.0,-21864.0,17692.0,-32768.0,2396.0,-14844.0
-2564.0,-29084.0,21692.0,-8670.0,3964.0,9823.0
-3276.0,-18096.0,14088.0,15106.0,4770.0,17388.0
-4516.0,-9192.0,12112.0,21214.0,2478.0,25224.0
-2496.0,1028.0,13004.0,24855.0,1019.0,26232.0
-2032.0,10752.0,11852.0,20665.0,-3641.0,21426.0
16.0,25796.0,15308.0,6222.0,2738.0,4212.0
-1736.0,22088.0,11644.0,-15331.0,-3007.0,-27795.0
-1264.0,8032.0,9008.0,-26302.0,-11974.0,-32768.0
4772.0,-9012.0,16188.0,-32768.0,-4144.0,-27383.0
-228.0,-28028.0,18464.0,-21200.0,-9975.0,-18841.0
-1848.0,-30772.0,17816.0,6333.0,5256.0,11312.0
-2404.0,-15044.0,13468.0,18951.0,4209.0,21694.0
-1348.0,-11272.0,15612.0,27709.0,5173.0,31855.0
-560.0,7900.0,6844.0,27483.0,1647.0,32767.0
32.0,22000.0,11780.0,12948.0,-1729.0,22151.0
-500.0,29616.0,13348.0,-840.0,499.0,-8873.0
-3008.0,15496.0,11184.0,-18331.0,-5545.0,-24213.0
1620.0,12208.0,9704.0,-31184.0,-4535.0,-32768.0
5816.0,-13824.0,19120.0,-32768.0,-4476.0,-30230.0
-4152.0,-21568.0,9380.0,-16212.0,1226.0,-25874.0
-3176.0,-32360.0,15916.0,-17852.0,1783.0,3619.0
456.0,-19852.0,16552.0,14319.0,719.0,18010.0
-2144.0,-13720.0,15080.0,15270.0,9352.0,30096.0
-2296.0,-6456.0,9856.0,24560.0,-2442.0,32767.0
-3872.0,12712.0,8336.0,21381.0,-8964.0,24493.0
-948.0,32767.0,14272.0,2081.0,4325.0,-9417.0
-2036.0,11616.0,11608.0,-16599.0,-15660.0,-30874.0
4656.0,-3844.0,20372.0,-28583.0,-17215.0,-28855.0
-3256.0,-27720.0,22008.0,-19258.0,-2631.0,-12147.0
-3092.0,-23724.0,16108.0,-1285.0,9398.0,10817.0
-1136.0,-19372.0,15896.0,13253.0,8148.0,26711.0
-1936.0,-5644.0,11004.0,26640.0,-3235.0,23450.0
456.0,5412.0,17208.0,16185.0,7211.0,28340.0
-4460.0,12836.0,13300.0,14986.0,2632.0,12599.0
-3268.0,27692.0,11488.0,-3604.0,4427.0,-12406.0
-4240.0,14544.0,9904.0,-7015.0,-11410.0,-32768.0
268.0,-4944.0,18824.0,-31379.0,-6974.0,-26844.0
-4484.0,-19740.0,19192.0,-18307.0,-1629.0,-16058.0
-4808.0,-22944.0,19112.0,-7586.0,3159.0,4607.0
-5332.0,-18784.0,16828.0,16402.0,7558.0,19560.0
-4184.0,-4052.0,12528.0,20000.0,1036.0,30529.0
-2628.0,1928.0,12628.0,26476.0,-5376.0,28621.0
-652.0,19748.0,12344.0,11924.0,33.0,24617.0
-204.0,26124.0,15176.0,939.0,1542.0,-2414.0
-1044.0,21260.0,10900.0,-15163.0,-4813.0,-26904.0
-2112.0,6348.0,8436.0,-26291.0,-10970.0,-32768.0
2512.0,-5036.0,13944.0,-31051.0,-11964.0,-32768.0
676.0,-23996.0,21456.0,-26970.0,-9053.0,-15928.0
-1908.0,-20504.0,17908.0,-2004.0,1665.0,-524.0
-1876.0,-21916.0,20660.0,14694.0,10587.0,20725.0
-2204.0,-8496.0,13808.0,31379.0,4675.0,24760.0
-1744.0,5460.0,10312.0,22554.0,7518.0,31367.0
-2252.0,15600.0,11072.0,16817.0,-886.0,19848.0
-3172.0,24076.0,12096.0,266.0,1668.0,1845.0
-2508.0,20540.0,11372.0,-15709.0,-6405.0,-24858.0
-1448.0,5636.0,10280.0,-24131.0,-12562.0,-32768.0
-292.0,-13464.0,20072.0,-30878.0,-4040.0,-20225.0
-1384.0,-22368.0,24088.0,-12871.0,740.0,-5959.0
-5036.0,-18988.0,16216.0,9302.0,4641.0,9458.0
-3956.0,-8992.0,17080.0,18439.0,3530.0,21856.0
-1796.0,824.0,14716.0,19710.0,2428.0,30435.0
-2376.0,14340.0,11268.0,12233.0,224.0,24172.0
-1332.0,23552.0,15836.0,2099.0,3138.0,1037.0
-2276.0,18496.0,11324.0,-19469.0,-3173.0,-22903.0
-1988.0,3788.0,10572.0,-22527.0,-10910.0,-32768.0
3280.0,-6060.0,16332.0,-25560.0,-9643.0,-32239.0
2360.0,-21928.0,22868.0,-28803.0,-420.0,-14944.0
-3780.0,-23768.0,16364.0,4121.0,4948.0,-120.0
-2380.0,-16204.0,17244.0,11451.0,5188.0,14834.0
-3448.0,-10468.0,16808.0,19389.0,6762.0,25775.0
-2468.0,3716.0,9972.0,20784.0,-1104.0,29468.0
-1672.0,11836.0,14776.0,8926.0,1951.0,24098.0
-3408.0,15364.0,15412.0,3488.0,-1067.0,3912.0
-3204.0,17388.0,13152.0,-9397.0,-6425.0,-18544.0
-2548.0,2872.0,14628.0,-19407.0,-9175.0,-26677.0
-72.0,-8176.0,21044.0,-19957.0,-7829.0,-18765.0
-2120.0,-18100.0,22080.0,-11834.0,4108.0,-6627.0
-4992.0,-18480.0,17844.0,7097.0,4203.0,8972.0
-2976.0,-10968.0,18912.0,15931.0,9095.0,20572.0
-3624.0,1548.0,12572.0,21053.0,1733.0,24139.0
-1012.0,12840.0,10608.0,16162.0,-1462.0,24437.0
-1008.0,26584.0,14164.0,3473.0,3137.0,-1848.0
-2384.0,18764.0,10028.0,-17791.0,-7558.0,-26672.0
104.0,2364.0,13388.0,-25970.0,-10804.0,-32342.0
120.0,-13408.0,17124.0,-28856.0,-2996.0,-26549.0
-2908.0,-24776.0,20672.0,-7852.0,1270.0,-3352.0
-3668.0,-17632.0,18960.0,7535.0,6478.0,12004.0
-2628.0,-13024.0,19220.0,17567.0,10210.0,28813.0
-1372.0,1016.0,8852.0,27140.0,505.0,32051.0
-992.0,14836.0,14000.0,15629.0,4089.0,24543.0
-1416.0,23996.0,13348.0,2526.0,3057.0,4965.0
-1464.0,23208.0,12268.0,-16080.0,-4179.0,-24477.0
-2076.0,9528.0,5984.0,-22535.0,-12569.0,-32768.0
4964.0,-12304.0,17700.0,-32768.0,-16966.0,-31440.0
-280.0,-27772.0,21332.0,-17684.0,-4159.0,-12934.0
-3076.0,-28172.0,17848.0,8966.0,6958.0,11633.0
-1680.0,-15104.0,16460.0,24306.0,4852.0,27999.0
356.0,-2144.0,11524.0,27700.0,3856.0,32767.0
1064.0,12600.0,9500.0,19518.0,476.0,32767.0
1112.0,27316.0,13068.0,10218.0,-250.0,10362.0
712.0,26428.0,12264.0,-11752.0,-2281.0,-19067.0
-640.0,12076.0,8312.0,-22477.0,-10426.0,-32768.0
4184.0,-2100.0,14156.0,-28971.0,-9840.0,-32768.0
2732.0,-15272.0,17860.0,-32689.0,-6841.0,-28201.0
912.0,-25044.0,19036.0,-16552.0,-1970.0,-11412.0
-2212.0,-28104.0,17460.0,10013.0,5204.0,9553.0
-1232.0,-15276.0,15908.0,20368.0,9307.0,28655.0
900.0,-3724.0,14304.0,27768.0,5024.0,32767.0
448.0,7060.0,10196.0,20076.0,2174.0,32767.0
144.0,15484.0,13864.0,15954.0,2689.0,22476.0
-1636.0,17420.0,14928.0,5092.0,2136.0,6766.0
-1788.0,20268.0,13936.0,-2962.0,-51.0,-8056.0
380.0,19152.0,12216.0,-19146.0,-3716.0,-28116.0
-264.0,9256.0,8584.0,-28297.0,-6102.0,-32768.0
6144.0,-5980.0,12716.0,-32768.0,-11248.0,-32768.0
-2336.0,-31036.0,14364.0,-26537.0,497.0,-20697.0
-3432.0,-30000.0,15412.0,-4180.0,955.0,1321.0
-752.0,-16636.0,15060.0,10797.0,2154.0,12504.0
-3104.0,-19152.0,18512.0,9416.0,6122.0,27717.0
748.0,-10268.0,14232.0,32767.0,-6871.0,31560.0
2424.0,6176.0,6244.0,32767.0,-4826.0,32767.0
964.0,26888.0,6932.0,27399.0,-1526.0,18777.0
2036.0,27756.0,15640.0,1058.0,-54.0,-6773.0
580.0,19944.0,11128.0,-21344.0,-6494.0,-31074.0
-2132.0,3036.0,6352.0,-31961.0,-12864.0,-32768.0
5536.0,-11372.0,19772.0,-31478.0,-17178.0,-27478.0
-1100.0,-18096.0,15576.0,-17066.0,-8045.0,-15060.0
3452.0,-25316.0,26956.0,-5344.0,1990.0,7228.0
440.0,-18616.0,21048.0,16180.0,11665.0,22173.0
1384.0,-5292.0,13700.0,30479.0,3670.0,29507.0
216.0,8560.0,8232.0,28688.0,2279.0,27559.0
820.0,26104.0,12548.0,5551.0,2577.0,13324.0
616.0,26664.0,13188.0,-12511.0,-73.0,-20642.0
-2308.0,9884.0,7356.0,-32768.0,-8212.0,-27406.0
4796.0,-6640.0,11132.0,-32768.0,-10842.0,-28276.0
1976.0,-32768.0,27012.0,-20572.0,562.0,-1848.0
-4592.0,-20012.0,9856.0,19651.0,3178.0,5029.0
-836.0,-15216.0,18548.0,17797.0,4081.0,24079.0
1148.0,-6064.0,15680.0,32767.0,1719.0,22201.0
116.0,14224.0,9968.0,28580.0,5241.0,21955.0
-844.0,24212.0,10692.0,11130.0,2169.0,2596.0
336.0,25824.0,12752.0,-9361.0,-1378.0,-23213.0
-1804.0,12028.0,5456.0,-32768.0,-11104.0,-32768.0
4628.0,-8240.0,10648.0,-32768.0,-14438.0,-32768.0
1760.0,-25024.0,18976.0,-26059.0,-6752.0,-16728.0
-136.0,-26192.0,20388.0,574.0,4416.0,3349.0
-188.0,-16232.0,18020.0,16539.0,5291.0,14888.0
704.0,-10852.0,16364.0,27969.0,7261.0,27479.0
-72.0,3140.0,10096.0,32767.0,6941.0,28300.0
-2196.0,16508.0,8252.0,20456.0,980.0,20226.0
704.0,28788.0,15124.0,-2164.0,1950.0,-1188.0
-1804.0,17560.0,11488.0,-23491.0,-3132.0,-22452.0
-1140.0,5612.0,6348.0,-32768.0,-10696.0,-30939.0
112.0,-20092.0,18588.0,-29509.0,-5840.0,-20206.0
2828.0,-20764.0,24152.0,-14933.0,-6232.0,-7014.0
-2072.0,-22164.0,18956.0,9986.0,1202.0,9197.0
404.0,-10332.0,16340.0,22552.0,4672.0,19721.0
48.0,-1900.0,16320.0,26572.0,3009.0,20443.0
-1624.0,13224.0,11816.0,18713.0,5180.0,16847.0
-2308.0,21392.0,14904.0,1668.0,1567.0,696.0
-2824.0,19708.0,9852.0,-25556.0,-2161.0,-17661.0
392.0,1528.0,9896.0,-32768.0,-9423.0,-27758.0
4272.0,-19972.0,18180.0,-32768.0,-6053.0,-19121.0
-776.0,-32768.0,22988.0,-8559.0,4639.0,1497.0
-2576.0,-20024.0,14472.0,21302.0,3446.0,11945.0
292.0,-11112.0,15356.0,32552.0,3709.0,23303.0
500.0,3720.0,11800.0,32767.0,5308.0,25688.0
-1764.0,19128.0,8284.0,19955.0,1276.0,19146.0
-1332.0,25532.0,14256.0,3234.0,564.0,-5283.0
-1564.0,18832.0,10268.0,-25296.0,-4682.0,-24808.0
672.0,4464.0,7092.0,-32553.0,-10768.0,-32768.0
7420.0,-18872.0,20152.0,-32768.0,-6479.0,-22135.0
-928.0,-29884.0,20412.0,-2970.0,720.0,-7323.0
-1860.0,-23596.0,15772.0,15730.0,5063.0,11809.0
936.0,-13364.0,18516.0,26499.0,7011.0,29130.0
2416.0,-1316.0,11924.0,32767.0,3355.0,29973.0
-460.0,17936.0,5332.0,24323.0,6436.0,29318.0
-892.0,28852.0,11220.0,4847.0,4530.0,6474.0
-992.0,27124.0,9328.0,-14622.0,-4908.0,-24503.0
-1080.0,8372.0,5600.0,-32768.0,-15359.0,-32768.0
5700.0,-10220.0,14836.0,-32768.0,-13021.0,-32768.0
1720.0,-32768.0,28364.0,-24717.0,-4695.0,-2259.0
-2060.0,-18808.0,15548.0,17102.0,-730.0,8187.0
1260.0,-16140.0,22256.0,18722.0,9507.0,32767.0
696.0,2780.0,8996.0,32767.0,3255.0,27146.0
1888.0,24640.0,10740.0,14549.0,5037.0,19661.0
-1796.0,28476.0,9724.0,-6625.0,1561.0,-15226.0
-2824.0,12992.0,9076.0,-19917.0,-12032.0,-30068.0
5616.0,3308.0,9376.0,-32768.0,-17422.0,-32768.0
-1764.0,-28796.0,15940.0,-31181.0,-2437.0,-22875.0
3296.0,-32128.0,25464.0,-16319.0,1844.0,3501.0
-392.0,-22632.0,17524.0,20605.0,8610.0,16555.0
2620.0,-9724.0,18148.0,25901.0,11201.0,32636.0
-328.0,3856.0,7592.0,32767.0,4906.0,29363.0
-1316.0,16524.0,7024.0,22186.0,614.0,24089.0
-1028.0,32767.0,13216.0,-7549.0,688.0,-4853.0
-2172.0,15896.0,9392.0,-26965.0,-9342.0,-30403.0
2508.0,3712.0,6532.0,-32768.0,-12140.0,-32768.0
4496.0,-27364.0,20564.0,-32768.0,-7370.0,-21680.0
-1316.0,-32768.0,20456.0,-2180.0,4712.0,7183.0
-1036.0,-17088.0,14388.0,20450.0,1207.0,19505.0
964.0,-10196.0,17796.0,28911.0,5227.0,31197.0
2628.0,5408.0,11824.0,32767.0,2503.0,26060.0
-1648.0,22684.0,9364.0,13965.0,5992.0,16257.0
-1916.0,24496.0,12388.0,-9220.0,2410.0,-5019.0
-2372.0,15856.0,11088.0,-19212.0,-7572.0,-25569.0
2404.0,7728.0,7044.0,-32768.0,-13941.0,-32768.0
-800.0,-24616.0,15948.0,-29772.0,-8069.0,-26523.0
4112.0,-26584.0,23784.0,-18220.0,-5136.0,-6992.0
-548.0,-30076.0,20480.0,15294.0,8753.0,15963.0
3280.0,-12548.0,17288.0,32304.0,6952.0,30392.0
-524.0,5024.0,8380.0,31733.0,5116.0,26923.0
-272.0,14300.0,9972.0,25807.0,2186.0,20761.0
-740.0,27684.0,10632.0,2001.0,673.0,3860.0
708.0,26248.0,11808.0,-23051.0,1824.0,-24387.0
